"rt","stimulus","response","trial_type","trial_index","time_elapsed","internal_node_id","participant_id","value","success","timeout","failed_images","failed_audio","failed_video","slider_start","condition","response_format","block","training_trial_counter","test_trial_counter","target_truth_value","all_TVs","target_content_type","qud","linguistic_prompt","target_image","images_in_order","correct"
"40521","<h3>Information and consent</h3>     <p style='text-align:left'> <b>Study title:</b> Sentences and shapes <br>     <b>Principal investigator:</b> Dan Lassiter <br>     <b>Researcher collecting data:</b> Dan Lassiter</p>         <p style='text-align:left'> <b>What is this document?</b> This document explains what kind of study we're doing, what your rights are,     and what will be done with your data. You should print this page for your records.</p>         <p style='text-align:left'> <b>Nature of the study.</b> You are invited to participate in a study which involves carefully reading sentences     about images showing different shapes and colours, and answering questions about the sentences and images. Once you finish, we also have some     questions about your experience (e.g. language background). Your responses will be recorded. Your session should last for around 8 minutes.     You will be given full instructions shortly.</p>         <p style='text-align:left'> <b>Compensation.</b> You will be paid at the posted rate for your participation in this study.</p>         <p style='text-align:left'> <b>Risks and benefits.</b> There are no known risks to participation in this study. Other than the payment mentioned,     there are no tangible benefits to you, however you will be contributing to our knowledge about language. </p>         <p style='text-align:left'> <b>Confidentiality and use of data.</b> All the information we collect during the course of the research will be processed     in accordance with Data Protection Law. In order to safeguard your privacy, we will never share personal information (like your name) with anyone     outside the research team. Your data will be referred to by a unique participant number rather than by name. Please note that we will temporarily     collect your Prolific ID to prevent repeat participation, however we will never share this information with anyone outside the research team and once     data collection is complete this ID will be deleted. Data will be stored on a password-protected, encrypted computer. The anonymised data collected     during this study will be used for research purposes. This includes being made available for other researchers to analyse.</p>         <p style='text-align:left'> <b>What are my data protection rights? </b> The University of Edinburgh is a Data Controller for the information you provide.     You have the right to access information held about you. Your right of access can be exercised in accordance with Data Protection Law. You also have other     rights including rights of correction, erasure and objection. For more details, including the right to lodge a complaint with the Information     Commissioner's Office, please visit www.ico.org.uk. Questions, comments and requests about your personal data can also be sent to the University Data     Protection Officer at dpo@ed.ac.uk.</p>         <p style='text-align:left'> <b>Voluntary participation and right to withdraw.</b> Your participation is voluntary, and you may stop at any time and for     any reason. If you wish to withdraw during the study, simply close the browser window and do not complete the study. If you wish to withdraw from the     study after completing, you can email the researcher within 2 weeks of participating and we will delete your data. In this case, there is no penalty or     loss of benefits to which you are otherwise entitled. Please note that after the two weeks have passed we will no longer be able delete your anonymised     data because your Prolific ID will have been deleted.</p>         <p style='text-align:left'> If you have any questions about what you've just read, please feel free to contact us now or later. You can contact us by     email at dan.lassiter@ed.ac.uk. This project has been approved by PPLS Ethics committee. If you have questions or comments regarding your rights as a     participant, please contact the School Research Convenor at ppls.rec@ed.ac.uk.</p>         <p style='text-align:left'> By proceeding you consent to the following:</p>     <ol type='1'>     <li><p style='text-align:left'><b>I agree to participate in this study.</b></li>     <li><p style='text-align:left'>I confirm that I have read and understood <b>how my data will be stored and used</b>.</li>     <li><p style='text-align:left'>I understand that I have the <b>right to terminate this session</b> at any point. If I choose to <b>withdraw after <br>    completing the study, I have up to 2 weeks from today to do so</b>, and my data will be deleted.</li>     </ol></p> ","0","html-button-response","0","40524","0.0-0.0","px015fwq29","","","","","","","","","","","","","","","","","","","",""
"1224","<h3>Instructions for the experiment</h3>             <p style='text-align:left'>In each question, you will see a set of 4 cards and a sentence describing the cards.</p>             <p style='text-align:left'>Your task is to indicate how likely the sentence is to be true for the 4 cards.<br>             <p style='text-align:left'>We'll start with three practice questions.</p>              <p style='text-align:left'>When you feel ready, click Continue below to start the practice section.</p>","0","html-button-response","1","41750","0.0-1.0","px015fwq29","","","","","","","","","","","","","","","","","","","",""
"","","","call-function","2","41750","0.0-2.0","px015fwq29","","","","","","","","","","","","","","","","","","","",""
"","","","call-function","3","41751","0.0-3.0","px015fwq29","","","","","","","","","","","","","","","","","","","",""
"","","","preload","4","42499","0.0-4.0","px015fwq29","","true","false","[]","[]","[]","","","","","","","","","","","","","",""
"7780","","98","image-array-slider-response","5","50280","0.0-5.0-0.0","px015fwq29","","","","","","","50","likelihood","slider","training","1","NA","NA","NA","NA","NA","The triangle is blue.","stimuli/training_stims/target-A.jpg","[""stimuli/training_stims/filler-A3.jpg"",""stimuli/training_stims/target-A.jpg"",""stimuli/training_stims/filler-A2.jpg"",""stimuli/training_stims/filler-A1.jpg""]","true"
"1648","The triangle is blue.<p><b style=color:forestgreen>Correct! Here, if a card is picked at random </br>it's certain that the sentence is true.</p><img src=stimuli/training_stims/filler-A3.jpg style='border:3px solid lightgray; width:200px'>&nbsp; &nbsp;<img src=stimuli/training_stims/target-A.jpg style='border:3px solid lightgray; width:200px'></br><img src=stimuli/training_stims/filler-A2.jpg style='border:3px solid lightgray; width:200px'>&nbsp; &nbsp;<img src=stimuli/training_stims/filler-A1.jpg style='border:3px solid lightgray; width:200px'>","0","html-button-response","6","51931","0.0-5.0-2.0","px015fwq29","","","","","","","","","","","","","","","","","","","",""
"1519","","53","image-array-slider-response","7","53451","0.0-6.0-0.0","px015fwq29","","","","","","","50","likelihood","slider","training","1","NA","NA","NA","NA","NA","The square that is next to the triangle is green.","stimuli/training_stims/target-B.jpg","[""stimuli/training_stims/filler-B1.jpg"",""stimuli/training_stims/filler-B2.jpg"",""stimuli/training_stims/filler-B3.jpg"",""stimuli/training_stims/target-B.jpg""]","true"
"879","The square that is next to the triangle is green.<p><b style=color:forestgreen>Correct! Here, if a card is picked at random </br>there is an even chance that the sentence is true.</p><img src=stimuli/training_stims/filler-B1.jpg style='border:3px solid lightgray; width:200px'>&nbsp; &nbsp;<img src=stimuli/training_stims/filler-B2.jpg style='border:3px solid lightgray; width:200px'></br><img src=stimuli/training_stims/filler-B3.jpg style='border:3px solid lightgray; width:200px'>&nbsp; &nbsp;<img src=stimuli/training_stims/target-B.jpg style='border:3px solid lightgray; width:200px'>","0","html-button-response","8","54331","0.0-6.0-2.0","px015fwq29","","","","","","","","","","","","","","","","","","","",""
"2116","","2","image-array-slider-response","9","56447","0.0-7.0-0.0","px015fwq29","","","","","","","50","likelihood","slider","training","1","NA","NA","NA","NA","NA","The circle is blue and is right of the triangle.","stimuli/training_stims/target-C.jpg","[""stimuli/training_stims/filler-C2.jpg"",""stimuli/training_stims/filler-C1.jpg"",""stimuli/training_stims/target-C.jpg"",""stimuli/training_stims/filler-C3.jpg""]","true"
"1049","The circle is blue and is right of the triangle.<p><b style=color:forestgreen>Correct! Here, if a card is picked at random </br>the sentence couldn't possibly be true.</p><img src=stimuli/training_stims/filler-C2.jpg style='border:3px solid lightgray; width:200px'>&nbsp; &nbsp;<img src=stimuli/training_stims/filler-C1.jpg style='border:3px solid lightgray; width:200px'></br><img src=stimuli/training_stims/target-C.jpg style='border:3px solid lightgray; width:200px'>&nbsp; &nbsp;<img src=stimuli/training_stims/filler-C3.jpg style='border:3px solid lightgray; width:200px'>","0","html-button-response","10","57498","0.0-7.0-2.0","px015fwq29","","","","","","","","","","","","","","","","","","","",""
"15938","<h3>Start of the experiment</h3>     <p style='text-align:left'>That is the practice part done. Next we will start the real experiment.</p>     <p style='text-align:left'>In some of the following questions the response might not be obvious.<br>     Just respond with your first intuition and don't overthink it. </p>     <p style='text-align:left'>When you feel ready to start, click Continue below.</p>","0","html-button-response","11","73436","0.0-8.0","px015fwq29","","","","","","","","","","","","","","","","","","","",""
"28996","","52","image-array-slider-response","12","102432","0.0-9.0","px015fwq29","","","","","","","50","likelihood","slider","test","NA","1","NA","[[""tf""],[""tt""],[""tf""],[""ft""]]","scalar","qud2","Some of the shapes are blue.","NA","[""stimuli/def_ex2-tt-2+scalar2-ft-2.jpg"",""stimuli/con1-ft-1+ana3-ff-1+def_ex3-tf-1+def_un3-ft-2+def_ex2-ft-2.jpg"",""stimuli/ana1-ff-2+only2-tt-1+def_ex2-tf-2.jpg"",""stimuli/ana1-tf-2+arc2-ff-1+def_ex2-ft-1.jpg""]",""
"32863","","53","image-array-slider-response","13","135299","0.0-10.0","px015fwq29","","","","","","","50","likelihood","slider","test","NA","2","NA","[[""ff""],[""ff""],[""tt""],[""tf""]]","def_un","qud2","The triangle is pink.","NA","[""stimuli/def_ex2-tt-2+scalar2-ft-2.jpg"",""stimuli/con1-ft-1+ana3-ff-1+def_ex3-tf-1+def_un3-ft-2+def_ex2-ft-2.jpg"",""stimuli/ana1-ff-2+only2-tt-1+def_ex2-tf-2.jpg"",""stimuli/ana1-tf-2+arc2-ff-1+def_ex2-ft-1.jpg""]",""
"17464","","42","image-array-slider-response","14","152764","0.0-11.0","px015fwq29","","","","","","","50","likelihood","slider","test","NA","3","NA","[[""tt""],[""ff""],[""ft""],[""ft""]]","only","qud2","Only the square is green.","NA","[""stimuli/def_ex2-tt-2+scalar2-ft-2.jpg"",""stimuli/con1-ft-1+ana3-ff-1+def_ex3-tf-1+def_un3-ft-2+def_ex2-ft-2.jpg"",""stimuli/ana1-ff-2+only2-tt-1+def_ex2-tf-2.jpg"",""stimuli/ana1-tf-2+arc2-ff-1+def_ex2-ft-1.jpg""]",""
"20931","","3","image-array-slider-response","15","173696","0.0-12.0","px015fwq29","","","","","","","50","likelihood","slider","test","NA","4","NA","[[""tf""],[""ff""],[""ft""],[""tf""]]","arc","qud1","The square, which is left of the circle, is pink.","NA","[""stimuli/def_ex2-tt-2+scalar2-ft-2.jpg"",""stimuli/con1-ft-1+ana3-ff-1+def_ex3-tf-1+def_un3-ft-2+def_ex2-ft-2.jpg"",""stimuli/ana1-ff-2+only2-tt-1+def_ex2-tf-2.jpg"",""stimuli/ana1-tf-2+arc2-ff-1+def_ex2-ft-1.jpg""]",""
"16617","","56","image-array-slider-response","16","190315","0.0-13.0","px015fwq29","","","","","","","50","likelihood","slider","test","NA","5","NA","[[""ff""],[""tf""],[""ft""],[""ff""]]","ana","qud2","The square is blue too.","NA","[""stimuli/def_ex2-tt-2+scalar2-ft-2.jpg"",""stimuli/con1-ft-1+ana3-ff-1+def_ex3-tf-1+def_un3-ft-2+def_ex2-ft-2.jpg"",""stimuli/ana1-ff-2+only2-tt-1+def_ex2-tf-2.jpg"",""stimuli/ana1-tf-2+arc2-ff-1+def_ex2-ft-1.jpg""]",""
"8279","","21","image-array-slider-response","17","198596","0.0-14.0","px015fwq29","","","","","","","50","likelihood","slider","test","NA","6","NA","[[""tt""],[""tt""],[""ff""],[""ft""]]","con","qud1","The square is pink and is left of the circle.","NA","[""stimuli/def_ex2-tt-2+scalar2-ft-2.jpg"",""stimuli/con1-ft-1+ana3-ff-1+def_ex3-tf-1+def_un3-ft-2+def_ex2-ft-2.jpg"",""stimuli/ana1-ff-2+only2-tt-1+def_ex2-tf-2.jpg"",""stimuli/ana1-tf-2+arc2-ff-1+def_ex2-ft-1.jpg""]",""
"10319","","77","image-array-slider-response","18","208916","0.0-15.0","px015fwq29","","","","","","","50","likelihood","slider","test","NA","7","NA","[[""tt""],[""ff""],[""tf""],[""tf""]]","numeral","qud2","One of the squares is green.","NA","[""stimuli/def_ex2-tt-2+scalar2-ft-2.jpg"",""stimuli/con1-ft-1+ana3-ff-1+def_ex3-tf-1+def_un3-ft-2+def_ex2-ft-2.jpg"",""stimuli/ana1-ff-2+only2-tt-1+def_ex2-tf-2.jpg"",""stimuli/ana1-tf-2+arc2-ff-1+def_ex2-ft-1.jpg""]",""
"8762","","37","image-array-slider-response","19","217680","0.0-16.0","px015fwq29","","","","","","","50","likelihood","slider","test","NA","8","NA","[[""tt""],[""ft""],[""tf""],[""ft""]]","def_ex","qud2","The pink triangle is right of the square.","NA","[""stimuli/def_ex2-tt-2+scalar2-ft-2.jpg"",""stimuli/con1-ft-1+ana3-ff-1+def_ex3-tf-1+def_un3-ft-2+def_ex2-ft-2.jpg"",""stimuli/ana1-ff-2+only2-tt-1+def_ex2-tf-2.jpg"",""stimuli/ana1-tf-2+arc2-ff-1+def_ex2-ft-1.jpg""]",""
"14832","","{""first_lang"":""english"",""bilingual"":""yes"",""other_lang"":""marathi"",""colourblind"":""no"",""feedback"":""thanks""}","survey-html-form","20","232515","0.0-17.0","px015fwq29","","","","","","","","","","","","","","","","","","","",""
"1497","<h3>Finished!</h3>     <p style='text-align:left'>Thank you for taking part!</p>     <p style='text-align:left'>Click Finish to complete the experiment and return to Prolific.</p>","0","html-button-response","21","234013","0.0-18.0","px015fwq29","","","","","","","","","","","","","","","","","","","",""
"rt","stimulus","response","trial_type","trial_index","time_elapsed","internal_node_id","participant_id","value","success","timeout","failed_images","failed_audio","failed_video","slider_start","condition","response_format","block","training_trial_counter","test_trial_counter","target_truth_value","all_TVs","target_content_type","qud","linguistic_prompt","target_image","images_in_order","correct"
"8357","<h3>Information and consent</h3>     <p style='text-align:left'> <b>Study title:</b> Sentences and shapes <br>     <b>Principal investigator:</b> Dan Lassiter <br>     <b>Researcher collecting data:</b> Dan Lassiter</p>         <p style='text-align:left'> <b>What is this document?</b> This document explains what kind of study we're doing, what your rights are,     and what will be done with your data. You should print this page for your records.</p>         <p style='text-align:left'> <b>Nature of the study.</b> You are invited to participate in a study which involves carefully reading sentences     about images showing different shapes and colours, and answering questions about the sentences and images. Once you finish, we also have some     questions about your experience (e.g. language background). Your responses will be recorded. Your session should last for around 8 minutes.     You will be given full instructions shortly.</p>         <p style='text-align:left'> <b>Compensation.</b> You will be paid at the posted rate for your participation in this study.</p>         <p style='text-align:left'> <b>Risks and benefits.</b> There are no known risks to participation in this study. Other than the payment mentioned,     there are no tangible benefits to you, however you will be contributing to our knowledge about language. </p>         <p style='text-align:left'> <b>Confidentiality and use of data.</b> All the information we collect during the course of the research will be processed     in accordance with Data Protection Law. In order to safeguard your privacy, we will never share personal information (like your name) with anyone     outside the research team. Your data will be referred to by a unique participant number rather than by name. Please note that we will temporarily     collect your Prolific ID to prevent repeat participation, however we will never share this information with anyone outside the research team and once     data collection is complete this ID will be deleted. Data will be stored on a password-protected, encrypted computer. The anonymised data collected     during this study will be used for research purposes. This includes being made available for other researchers to analyse.</p>         <p style='text-align:left'> <b>What are my data protection rights? </b> The University of Edinburgh is a Data Controller for the information you provide.     You have the right to access information held about you. Your right of access can be exercised in accordance with Data Protection Law. You also have other     rights including rights of correction, erasure and objection. For more details, including the right to lodge a complaint with the Information     Commissioner's Office, please visit www.ico.org.uk. Questions, comments and requests about your personal data can also be sent to the University Data     Protection Officer at dpo@ed.ac.uk.</p>         <p style='text-align:left'> <b>Voluntary participation and right to withdraw.</b> Your participation is voluntary, and you may stop at any time and for     any reason. If you wish to withdraw during the study, simply close the browser window and do not complete the study. If you wish to withdraw from the     study after completing, you can email the researcher within 2 weeks of participating and we will delete your data. In this case, there is no penalty or     loss of benefits to which you are otherwise entitled. Please note that after the two weeks have passed we will no longer be able delete your anonymised     data because your Prolific ID will have been deleted.</p>         <p style='text-align:left'> If you have any questions about what you've just read, please feel free to contact us now or later. You can contact us by     email at dan.lassiter@ed.ac.uk. This project has been approved by PPLS Ethics committee. If you have questions or comments regarding your rights as a     participant, please contact the School Research Convenor at ppls.rec@ed.ac.uk.</p>         <p style='text-align:left'> By proceeding you consent to the following:</p>     <ol type='1'>     <li><p style='text-align:left'><b>I agree to participate in this study.</b></li>     <li><p style='text-align:left'>I confirm that I have read and understood <b>how my data will be stored and used</b>.</li>     <li><p style='text-align:left'>I understand that I have the <b>right to terminate this session</b> at any point. If I choose to <b>withdraw after <br>    completing the study, I have up to 2 weeks from today to do so</b>, and my data will be deleted.</li>     </ol></p> ","0","html-button-response","0","8360","0.0-0.0","8whyc261ka","","","","","","","","","","","","","","","","","","","",""
"1005","<h3>Instructions for the experiment</h3>             <p style='text-align:left'>In each question, you will see a set of 4 cards and a sentence describing the cards.</p>             <p style='text-align:left'>One of the cards will be highlighted with a red dashed line. Your task is to indicate<br>whether             the sentence is acceptable for <u>the highlighted card</u> only.<br>             <p style='text-align:left'>We'll start with three practice questions.</p>             <p style='text-align:left'>When you feel ready, click Continue below to start the practice section.</p>","0","html-button-response","1","9366","0.0-1.0","8whyc261ka","","","","","","","","","","","","","","","","","","","",""
"","","","call-function","2","9367","0.0-2.0","8whyc261ka","","","","","","","","","","","","","","","","","","","",""
"","","","call-function","3","9368","0.0-3.0","8whyc261ka","","","","","","","","","","","","","","","","","","","",""
"","","","preload","4","10132","0.0-4.0","8whyc261ka","","true","false","[]","[]","[]","","","","","","","","","","","","","",""
"3571","","95","image-array-slider-response","5","13705","0.0-5.0-0.0","8whyc261ka","","","","","","","50","acceptability","slider","training","1","NA","NA","NA","NA","NA","The triangle is blue.","stimuli/training_stims/target-A.jpg","[""stimuli/training_stims/target-A.jpg"",""stimuli/training_stims/filler-A3.jpg"",""stimuli/training_stims/filler-A1.jpg"",""stimuli/training_stims/filler-A2.jpg""]","true"
"1149","The triangle is blue.<p><b style=color:forestgreen>Correct! For the highlighted card </br>the sentence is completely acceptable.</p><img src=stimuli/training_stims/target-A.jpg style='border:3px solid lightgray; width:200px'>","0","html-button-response","6","14856","0.0-5.0-2.0","8whyc261ka","","","","","","","","","","","","","","","","","","","",""
"1759","","7","image-array-slider-response","7","16616","0.0-6.0-0.0","8whyc261ka","","","","","","","50","acceptability","slider","training","1","NA","NA","NA","NA","NA","The square that is next to the triangle is green.","stimuli/training_stims/target-B.jpg","[""stimuli/training_stims/filler-B2.jpg"",""stimuli/training_stims/filler-B3.jpg"",""stimuli/training_stims/target-B.jpg"",""stimuli/training_stims/filler-B1.jpg""]","false"
"2121","","62","image-array-slider-response","8","18739","0.0-6.0-1.0-0.0-0.0","8whyc261ka","","","","","","","50","acceptability","slider","training","2","NA","NA","NA","NA","NA","The square that is next to the triangle is green.","stimuli/training_stims/target-B.jpg","[""stimuli/training_stims/filler-B2.jpg"",""stimuli/training_stims/filler-B3.jpg"",""stimuli/training_stims/target-B.jpg"",""stimuli/training_stims/filler-B1.jpg""]","false"
"2099","","93","image-array-slider-response","9","20840","0.0-6.0-1.1-0.1-0.1","8whyc261ka","","","","","","","50","acceptability","slider","training","3","NA","NA","NA","NA","NA","The square that is next to the triangle is green.","stimuli/training_stims/target-B.jpg","[""stimuli/training_stims/filler-B2.jpg"",""stimuli/training_stims/filler-B3.jpg"",""stimuli/training_stims/target-B.jpg"",""stimuli/training_stims/filler-B1.jpg""]","true"
"1085","The square that is next to the triangle is green.<p><b style=color:forestgreen>Correct! For the highlighted card </br>the sentence is completely acceptable.</p><img src=stimuli/training_stims/target-B.jpg style='border:3px solid lightgray; width:200px'>","0","html-button-response","10","21926","0.0-6.0-2.0","8whyc261ka","","","","","","","","","","","","","","","","","","","",""
"2078","","2","image-array-slider-response","11","24005","0.0-7.0-0.0","8whyc261ka","","","","","","","50","acceptability","slider","training","1","NA","NA","NA","NA","NA","The circle is blue and is right of the triangle.","stimuli/training_stims/target-C.jpg","[""stimuli/training_stims/filler-C1.jpg"",""stimuli/training_stims/target-C.jpg"",""stimuli/training_stims/filler-C3.jpg"",""stimuli/training_stims/filler-C2.jpg""]","true"
"1053","The circle is blue and is right of the triangle.<p><b style=color:forestgreen>Correct! For the highlighted card </br>the sentence is completely unacceptable.</p><img src=stimuli/training_stims/target-C.jpg style='border:3px solid lightgray; width:200px'>","0","html-button-response","12","25059","0.0-7.0-2.0","8whyc261ka","","","","","","","","","","","","","","","","","","","",""
"1066","<h3>Start of the experiment</h3>     <p style='text-align:left'>That is the practice part done. Next we will start the real experiment.</p>     <p style='text-align:left'>In some of the following questions the response might not be obvious.<br>     Just respond with your first intuition and don't overthink it. </p>     <p style='text-align:left'>When you feel ready to start, click Continue below.</p>","0","html-button-response","13","26125","0.0-8.0","8whyc261ka","","","","","","","","","","","","","","","","","","","",""
"4729","","83","image-array-slider-response","14","30856","0.0-9.0","8whyc261ka","","","","","","","50","acceptability","slider","test","NA","1","[""ft""]","[[""tt""],[""tf""],[""ft""],[""tt""]]","arc","qud1","The square, which is left of the circle, is pink.","stimuli/ana1-ff-1+arc2-ft-1+arc3-tt-2.jpg","[""stimuli/def_ex1-ft-2.jpg"",""stimuli/def_ex1-tf-2+con2-tf-2+con3-ft-1+def_un3-ft-1.jpg"",""stimuli/def_ex1-ft-1+def_un-ft-2.jpg"",""stimuli/def_un1-ft-1+con3-tt-2+def_ex1-ff-2.jpg""]",""
"1965","","40","image-array-slider-response","15","32822","0.0-10.0","8whyc261ka","","","","","","","50","acceptability","slider","test","NA","2","[""tt""]","[[""tf""],[""tt""],[""tt""],[""tt""]]","scalar","qud2","Some of the shapes are squares.","stimuli/def_un3-ff-2+scalar2-tf-1.+scalar3-tt-1jpg.jpg","[""stimuli/def_ex1-ft-2.jpg"",""stimuli/def_ex1-tf-2+con2-tf-2+con3-ft-1+def_un3-ft-1.jpg"",""stimuli/def_ex1-ft-1+def_un-ft-2.jpg"",""stimuli/def_un1-ft-1+con3-tt-2+def_ex1-ff-2.jpg""]",""
"1875","","61","image-array-slider-response","16","34700","0.0-11.0","8whyc261ka","","","","","","","50","acceptability","slider","test","NA","3","[""ft""]","[[""ff""],[""ft""],[""tf""],[""ft""]]","ana","qud2","The square is blue too.","stimuli/arc1-tt-1+ana2-ft-2.jpg","[""stimuli/def_ex1-ft-2.jpg"",""stimuli/def_ex1-tf-2+con2-tf-2+con3-ft-1+def_un3-ft-1.jpg"",""stimuli/def_ex1-ft-1+def_un-ft-2.jpg"",""stimuli/def_un1-ft-1+con3-tt-2+def_ex1-ff-2.jpg""]",""
"1754","","36","image-array-slider-response","17","36455","0.0-12.0","8whyc261ka","","","","","","","50","acceptability","slider","test","NA","4","[""tt""]","[[""tt""],[""ft""],[""ft""],[""tt""]]","con","qud3","The square is pink and is left of the circle.","stimuli/con1-tt-1+con3-tt-1+arc2-tt-1+arc3-tt-1+def_ex3-tf-2.jpg","[""stimuli/def_ex1-ft-2.jpg"",""stimuli/def_ex1-tf-2+con2-tf-2+con3-ft-1+def_un3-ft-1.jpg"",""stimuli/def_ex1-ft-1+def_un-ft-2.jpg"",""stimuli/def_un1-ft-1+con3-tt-2+def_ex1-ff-2.jpg""]",""
"1299","","72","image-array-slider-response","18","37756","0.0-13.0","8whyc261ka","","","","","","","50","acceptability","slider","test","NA","5","[""tt""]","[[""tt""],[""tt""],[""tf""],[""tt""]]","numeral","qud1","One of the squares is green.","stimuli/scalar3-tf-2+numeral1-ff-2+numeral3-tt-1.jpg","[""stimuli/def_ex1-ft-2.jpg"",""stimuli/def_ex1-tf-2+con2-tf-2+con3-ft-1+def_un3-ft-1.jpg"",""stimuli/def_ex1-ft-1+def_un-ft-2.jpg"",""stimuli/def_un1-ft-1+con3-tt-2+def_ex1-ff-2.jpg""]",""
"1548","","36","image-array-slider-response","19","39305","0.0-14.0","8whyc261ka","","","","","","","50","acceptability","slider","test","NA","6","[""tf""]","[[""tf""],[""ff""],[""ft""],[""ft""]]","only","qud1","Only the circle is pink.","stimuli/only1-ft-2+con2-tt-2+ana3-tt-1+only3-tf-1+arc3-ff-2+def_ex3-ft-1.jpg","[""stimuli/def_ex1-ft-2.jpg"",""stimuli/def_ex1-tf-2+con2-tf-2+con3-ft-1+def_un3-ft-1.jpg"",""stimuli/def_ex1-ft-1+def_un-ft-2.jpg"",""stimuli/def_un1-ft-1+con3-tt-2+def_ex1-ff-2.jpg""]",""
"1341","","64","image-array-slider-response","20","40648","0.0-15.0","8whyc261ka","","","","","","","50","acceptability","slider","test","NA","7","[""ft""]","[[""tf""],[""tf""],[""tt""],[""ft""]]","def_un","qud1","The blue square is right of the circle.","stimuli/con1-ft-1+ana3-ff-1+def_ex3-tf-1+def_un3-ft-2+def_ex2-ft-2.jpg","[""stimuli/def_ex1-ft-2.jpg"",""stimuli/def_ex1-tf-2+con2-tf-2+con3-ft-1+def_un3-ft-1.jpg"",""stimuli/def_ex1-ft-1+def_un-ft-2.jpg"",""stimuli/def_un1-ft-1+con3-tt-2+def_ex1-ff-2.jpg""]",""
"1555","","40","image-array-slider-response","21","42205","0.0-16.0","8whyc261ka","","","","","","","50","acceptability","slider","test","NA","8","[""tf""]","[[""ft""],[""tf""],[""ft""],[""ff""]]","def_ex","qud3","The blue circle is next to the triangle.","stimuli/def_ex1-tf-2+con2-tf-2+con3-ft-1+def_un3-ft-1.jpg","[""stimuli/def_ex1-ft-2.jpg"",""stimuli/def_ex1-tf-2+con2-tf-2+con3-ft-1+def_un3-ft-1.jpg"",""stimuli/def_ex1-ft-1+def_un-ft-2.jpg"",""stimuli/def_un1-ft-1+con3-tt-2+def_ex1-ff-2.jpg""]",""
"9498","","{""first_lang"":""qinoeq"",""bilingual"":""no"",""other_lang"":"""",""colourblind"":""no"",""feedback"":""htnaks""}","survey-html-form","22","51707","0.0-17.0","8whyc261ka","","","","","","","","","","","","","","","","","","","",""
"1214","<h3>Finished!</h3>     <p style='text-align:left'>Thank you for taking part!</p>     <p style='text-align:left'>Click Finish to complete the experiment and return to Prolific.</p>","0","html-button-response","23","52922","0.0-18.0","8whyc261ka","","","","","","","","","","","","","","","","","","","",""
"rt","stimulus","response","trial_type","trial_index","time_elapsed","internal_node_id","participant_id","value","success","timeout","failed_images","failed_audio","failed_video","condition","response_format","block","training_trial_counter","test_trial_counter","target_truth_value","all_TVs","target_content_type","qud","linguistic_prompt","target_image","images_in_order","correct"
"2383","<h3>Information and consent</h3>     <p style='text-align:left'> <b>Study title:</b> Sentences and shapes <br>     <b>Principal investigator:</b> Dan Lassiter <br>     <b>Researcher collecting data:</b> Dan Lassiter</p>         <p style='text-align:left'> <b>What is this document?</b> This document explains what kind of study we're doing, what your rights are,     and what will be done with your data. You should print this page for your records.</p>         <p style='text-align:left'> <b>Nature of the study.</b> You are invited to participate in a study which involves carefully reading sentences     about images showing different shapes and colours, and answering questions about the sentences and images. Once you finish, we also have some     questions about your experience (e.g. language background). Your responses will be recorded. Your session should last for around 8 minutes.     You will be given full instructions shortly.</p>         <p style='text-align:left'> <b>Compensation.</b> You will be paid at the posted rate for your participation in this study.</p>         <p style='text-align:left'> <b>Risks and benefits.</b> There are no known risks to participation in this study. Other than the payment mentioned,     there are no tangible benefits to you, however you will be contributing to our knowledge about language. </p>         <p style='text-align:left'> <b>Confidentiality and use of data.</b> All the information we collect during the course of the research will be processed     in accordance with Data Protection Law. In order to safeguard your privacy, we will never share personal information (like your name) with anyone     outside the research team. Your data will be referred to by a unique participant number rather than by name. Please note that we will temporarily     collect your Prolific ID to prevent repeat participation, however we will never share this information with anyone outside the research team and once     data collection is complete this ID will be deleted. Data will be stored on a password-protected, encrypted computer. The anonymised data collected     during this study will be used for research purposes. This includes being made available for other researchers to analyse.</p>         <p style='text-align:left'> <b>What are my data protection rights? </b> The University of Edinburgh is a Data Controller for the information you provide.     You have the right to access information held about you. Your right of access can be exercised in accordance with Data Protection Law. You also have other     rights including rights of correction, erasure and objection. For more details, including the right to lodge a complaint with the Information     Commissioner's Office, please visit www.ico.org.uk. Questions, comments and requests about your personal data can also be sent to the University Data     Protection Officer at dpo@ed.ac.uk.</p>         <p style='text-align:left'> <b>Voluntary participation and right to withdraw.</b> Your participation is voluntary, and you may stop at any time and for     any reason. If you wish to withdraw during the study, simply close the browser window and do not complete the study. If you wish to withdraw from the     study after completing, you can email the researcher within 2 weeks of participating and we will delete your data. In this case, there is no penalty or     loss of benefits to which you are otherwise entitled. Please note that after the two weeks have passed we will no longer be able delete your anonymised     data because your Prolific ID will have been deleted.</p>         <p style='text-align:left'> If you have any questions about what you've just read, please feel free to contact us now or later. You can contact us by     email at dan.lassiter@ed.ac.uk. This project has been approved by PPLS Ethics committee. If you have questions or comments regarding your rights as a     participant, please contact the School Research Convenor at ppls.rec@ed.ac.uk.</p>         <p style='text-align:left'> By proceeding you consent to the following:</p>     <ol type='1'>     <li><p style='text-align:left'><b>I agree to participate in this study.</b></li>     <li><p style='text-align:left'>I confirm that I have read and understood <b>how my data will be stored and used</b>.</li>     <li><p style='text-align:left'>I understand that I have the <b>right to terminate this session</b> at any point. If I choose to <b>withdraw after <br>    completing the study, I have up to 2 weeks from today to do so</b>, and my data will be deleted.</li>     </ol></p> ","0","html-button-response","0","2385","0.0-0.0","t091093jd9","","","","","","","","","","","","","","","","","","",""
"887","<h3>Instructions for the experiment</h3>             <p style='text-align:left'>In each question, you will see a set of 4 cards and a sentence describing the cards.</p>             <p style='text-align:left'>One of the cards will be highlighted with a red dashed line. Your task is to indicate<br>whether             the sentence is true for <u>the highlighted card</u> only.<br>             <p style='text-align:left'>We'll start with three practice questions.</p>             <p style='text-align:left'>When you feel ready, click Continue below to start the practice section.</p>","0","html-button-response","1","3273","0.0-1.0","t091093jd9","","","","","","","","","","","","","","","","","","",""
"","","","call-function","2","3274","0.0-2.0","t091093jd9","","","","","","","","","","","","","","","","","","",""
"","","","call-function","3","3274","0.0-3.0","t091093jd9","","","","","","","","","","","","","","","","","","",""
"","","","preload","4","3359","0.0-4.0","t091093jd9","","true","false","[]","[]","[]","","","","","","","","","","","","",""
"2259","","True","image-array-multi-choice","5","5619","0.0-5.0-0.0","t091093jd9","","","","","","","truth","radio","training","1","NA","NA","NA","NA","NA","The triangle is blue.","stimuli/training_stims/target-A.jpg","[""stimuli/training_stims/filler-A2.jpg"",""stimuli/training_stims/target-A.jpg"",""stimuli/training_stims/filler-A3.jpg"",""stimuli/training_stims/filler-A1.jpg""]","true"
"1015","The triangle is blue.<p><b style=color:forestgreen>Correct! For the highlighted card </br>the sentence is true.</p><img src=stimuli/training_stims/target-A.jpg style='border:3px solid lightgray; width:200px'>","0","html-button-response","6","6635","0.0-5.0-2.0","t091093jd9","","","","","","","","","","","","","","","","","","",""
"1735","","False","image-array-multi-choice","7","8371","0.0-6.0-0.0","t091093jd9","","","","","","","truth","radio","training","1","NA","NA","NA","NA","NA","The square that is next to the triangle is green.","stimuli/training_stims/target-B.jpg","[""stimuli/training_stims/filler-B1.jpg"",""stimuli/training_stims/filler-B2.jpg"",""stimuli/training_stims/filler-B3.jpg"",""stimuli/training_stims/target-B.jpg""]","false"
"2232","","True","image-array-multi-choice","8","10604","0.0-6.0-1.0-0.0-0.0","t091093jd9","","","","","","","truth","radio","training","2","NA","NA","NA","NA","NA","The square that is next to the triangle is green.","stimuli/training_stims/target-B.jpg","[""stimuli/training_stims/filler-B1.jpg"",""stimuli/training_stims/filler-B2.jpg"",""stimuli/training_stims/filler-B3.jpg"",""stimuli/training_stims/target-B.jpg""]","true"
"1864","The square that is next to the triangle is green.<p><b style=color:forestgreen>Correct! For the highlighted card </br>the sentence is true.</p><img src=stimuli/training_stims/target-B.jpg style='border:3px solid lightgray; width:200px'>","0","html-button-response","9","12469","0.0-6.0-2.0","t091093jd9","","","","","","","","","","","","","","","","","","",""
"1681","","False","image-array-multi-choice","10","14151","0.0-7.0-0.0","t091093jd9","","","","","","","truth","radio","training","1","NA","NA","NA","NA","NA","The circle is blue and is right of the triangle.","stimuli/training_stims/target-C.jpg","[""stimuli/training_stims/filler-C1.jpg"",""stimuli/training_stims/filler-C3.jpg"",""stimuli/training_stims/filler-C2.jpg"",""stimuli/training_stims/target-C.jpg""]","true"
"919","The circle is blue and is right of the triangle.<p><b style=color:forestgreen>Correct! For the highlighted card </br>the sentence is false.</p><img src=stimuli/training_stims/target-C.jpg style='border:3px solid lightgray; width:200px'>","0","html-button-response","11","15071","0.0-7.0-2.0","t091093jd9","","","","","","","","","","","","","","","","","","",""
"930","<h3>Start of the experiment</h3>     <p style='text-align:left'>That is the practice part done. Next we will start the real experiment.</p>     <p style='text-align:left'>In some of the following questions the response might not be obvious.<br>     Just respond with your first intuition and don't overthink it. </p>     <p style='text-align:left'>When you feel ready to start, click Continue below.</p>","0","html-button-response","12","16001","0.0-8.0","t091093jd9","","","","","","","","","","","","","","","","","","",""
"1785","","False","image-array-multi-choice","13","17788","0.0-9.0","t091093jd9","","","","","","","truth","radio","test","NA","1","[""tt""]","[[""tf""],[""tt""],[""ff""],[""ft""]]","ana","qud4","The square is blue too.","stimuli/arc3-ft-1+def_ex2-tf-1.jpg","[""stimuli/arc3-ft-1+def_ex2-tf-1.jpg"",""stimuli/def_ex2-tt-2+scalar2-ft-2.jpg"",""stimuli/arc1-tf-1+only2-tf-1+def_ex2-ff-2.jpg"",""stimuli/ana1-ff-2+only2-tt-1+def_ex2-tf-2.jpg""]",""
"1315","","False","image-array-multi-choice","14","19104","0.0-10.0","t091093jd9","","","","","","","truth","radio","test","NA","2","[""tt""]","[[""ff""],[""ft""],[""ff""],[""tt""]]","def_un","qud4","The blue square is right of the circle.","stimuli/arc3-ft-1+def_ex2-tf-1.jpg","[""stimuli/arc3-ft-1+def_ex2-tf-1.jpg"",""stimuli/def_ex2-tt-2+scalar2-ft-2.jpg"",""stimuli/arc1-tf-1+only2-tf-1+def_ex2-ff-2.jpg"",""stimuli/ana1-ff-2+only2-tt-1+def_ex2-tf-2.jpg""]",""
"2815","","False","image-array-multi-choice","15","21920","0.0-11.0","t091093jd9","","","","","","","truth","radio","test","NA","3","[""tt""]","[[""ft""],[""ft""],[""tf""],[""tt""]]","scalar","qud4","Some of the circles are green.","stimuli/arc3-ft-1+def_ex2-tf-1.jpg","[""stimuli/arc3-ft-1+def_ex2-tf-1.jpg"",""stimuli/def_ex2-tt-2+scalar2-ft-2.jpg"",""stimuli/arc1-tf-1+only2-tf-1+def_ex2-ff-2.jpg"",""stimuli/ana1-ff-2+only2-tt-1+def_ex2-tf-2.jpg""]",""
"1485","","False","image-array-multi-choice","16","23407","0.0-12.0","t091093jd9","","","","","","","truth","radio","test","NA","4","[""tt""]","[[""tt""],[""tf""],[""tt""],[""ff""]]","numeral","qud4","One of the circles is pink.","stimuli/arc3-ft-1+def_ex2-tf-1.jpg","[""stimuli/arc3-ft-1+def_ex2-tf-1.jpg"",""stimuli/def_ex2-tt-2+scalar2-ft-2.jpg"",""stimuli/arc1-tf-1+only2-tf-1+def_ex2-ff-2.jpg"",""stimuli/ana1-ff-2+only2-tt-1+def_ex2-tf-2.jpg""]",""
"1310","","False","image-array-multi-choice","17","24718","0.0-13.0","t091093jd9","","","","","","","truth","radio","test","NA","5","[""ft""]","[[""ff""],[""ft""],[""ft""],[""tf""]]","only","qud4","Only the square is green.","stimuli/arc3-ft-1+def_ex2-tf-1.jpg","[""stimuli/arc3-ft-1+def_ex2-tf-1.jpg"",""stimuli/def_ex2-tt-2+scalar2-ft-2.jpg"",""stimuli/arc1-tf-1+only2-tf-1+def_ex2-ff-2.jpg"",""stimuli/ana1-ff-2+only2-tt-1+def_ex2-tf-2.jpg""]",""
"1815","","False","image-array-multi-choice","18","26534","0.0-14.0","t091093jd9","","","","","","","truth","radio","test","NA","6","[""tt""]","[[""ft""],[""tt""],[""tt""],[""ff""]]","arc","qud4","The square, which is left of the circle, is pink.","stimuli/arc3-ft-1+def_ex2-tf-1.jpg","[""stimuli/arc3-ft-1+def_ex2-tf-1.jpg"",""stimuli/def_ex2-tt-2+scalar2-ft-2.jpg"",""stimuli/arc1-tf-1+only2-tf-1+def_ex2-ff-2.jpg"",""stimuli/ana1-ff-2+only2-tt-1+def_ex2-tf-2.jpg""]",""
"2018","","False","image-array-multi-choice","19","28554","0.0-15.0","t091093jd9","","","","","","","truth","radio","test","NA","7","[""ff""]","[[""ff""],[""ft""],[""ft""],[""ff""]]","con","qud4","The square is pink and is left of the circle.","stimuli/arc3-ft-1+def_ex2-tf-1.jpg","[""stimuli/arc3-ft-1+def_ex2-tf-1.jpg"",""stimuli/def_ex2-tt-2+scalar2-ft-2.jpg"",""stimuli/arc1-tf-1+only2-tf-1+def_ex2-ff-2.jpg"",""stimuli/ana1-ff-2+only2-tt-1+def_ex2-tf-2.jpg""]",""
"1764","","False","image-array-multi-choice","20","30318","0.0-16.0","t091093jd9","","","","","","","truth","radio","test","NA","8","[""ff""]","[[""tf""],[""tt""],[""ff""],[""tf""]]","def_ex","qud4","The pink triangle is right of the square.","stimuli/arc3-ft-1+def_ex2-tf-1.jpg","[""stimuli/arc3-ft-1+def_ex2-tf-1.jpg"",""stimuli/def_ex2-tt-2+scalar2-ft-2.jpg"",""stimuli/arc1-tf-1+only2-tf-1+def_ex2-ff-2.jpg"",""stimuli/ana1-ff-2+only2-tt-1+def_ex2-tf-2.jpg""]",""
"6250","","{""first_lang"":""ecce"",""bilingual"":""no"",""other_lang"":""ccece"",""colourblind"":""no"",""feedback"":""cece""}","survey-html-form","21","36570","0.0-17.0","t091093jd9","","","","","","","","","","","","","","","","","","",""
"1163","<h3>Finished!</h3>     <p style='text-align:left'>Thank you for taking part!</p>     <p style='text-align:left'>Click Finish to complete the experiment and return to Prolific.</p>","0","html-button-response","22","37735","0.0-18.0","t091093jd9","","","","","","","","","","","","","","","","","","",""
"rt","stimulus","response","trial_type","trial_index","time_elapsed","internal_node_id","participant_id","value","success","timeout","failed_images","failed_audio","failed_video","condition","response_format","block","training_trial_counter","test_trial_counter","target_truth_value","all_TVs","target_content_type","qud","linguistic_prompt","target_image","images_in_order","correct"
"2276","<h3>Information and consent</h3>     <p style='text-align:left'> <b>Study title:</b> Sentences and shapes <br>     <b>Principal investigator:</b> Dan Lassiter <br>     <b>Researcher collecting data:</b> Dan Lassiter</p>         <p style='text-align:left'> <b>What is this document?</b> This document explains what kind of study we're doing, what your rights are,     and what will be done with your data. You should print this page for your records.</p>         <p style='text-align:left'> <b>Nature of the study.</b> You are invited to participate in a study which involves carefully reading sentences     about images showing different shapes and colours, and answering questions about the sentences and images. Once you finish, we also have some     questions about your experience (e.g. language background). Your responses will be recorded. Your session should last for around 8 minutes.     You will be given full instructions shortly.</p>         <p style='text-align:left'> <b>Compensation.</b> You will be paid at the posted rate for your participation in this study.</p>         <p style='text-align:left'> <b>Risks and benefits.</b> There are no known risks to participation in this study. Other than the payment mentioned,     there are no tangible benefits to you, however you will be contributing to our knowledge about language. </p>         <p style='text-align:left'> <b>Confidentiality and use of data.</b> All the information we collect during the course of the research will be processed     in accordance with Data Protection Law. In order to safeguard your privacy, we will never share personal information (like your name) with anyone     outside the research team. Your data will be referred to by a unique participant number rather than by name. Please note that we will temporarily     collect your Prolific ID to prevent repeat participation, however we will never share this information with anyone outside the research team and once     data collection is complete this ID will be deleted. Data will be stored on a password-protected, encrypted computer. The anonymised data collected     during this study will be used for research purposes. This includes being made available for other researchers to analyse.</p>         <p style='text-align:left'> <b>What are my data protection rights? </b> The University of Edinburgh is a Data Controller for the information you provide.     You have the right to access information held about you. Your right of access can be exercised in accordance with Data Protection Law. You also have other     rights including rights of correction, erasure and objection. For more details, including the right to lodge a complaint with the Information     Commissioner's Office, please visit www.ico.org.uk. Questions, comments and requests about your personal data can also be sent to the University Data     Protection Officer at dpo@ed.ac.uk.</p>         <p style='text-align:left'> <b>Voluntary participation and right to withdraw.</b> Your participation is voluntary, and you may stop at any time and for     any reason. If you wish to withdraw during the study, simply close the browser window and do not complete the study. If you wish to withdraw from the     study after completing, you can email the researcher within 2 weeks of participating and we will delete your data. In this case, there is no penalty or     loss of benefits to which you are otherwise entitled. Please note that after the two weeks have passed we will no longer be able delete your anonymised     data because your Prolific ID will have been deleted.</p>         <p style='text-align:left'> If you have any questions about what you've just read, please feel free to contact us now or later. You can contact us by     email at dan.lassiter@ed.ac.uk. This project has been approved by PPLS Ethics committee. If you have questions or comments regarding your rights as a     participant, please contact the School Research Convenor at ppls.rec@ed.ac.uk.</p>         <p style='text-align:left'> By proceeding you consent to the following:</p>     <ol type='1'>     <li><p style='text-align:left'><b>I agree to participate in this study.</b></li>     <li><p style='text-align:left'>I confirm that I have read and understood <b>how my data will be stored and used</b>.</li>     <li><p style='text-align:left'>I understand that I have the <b>right to terminate this session</b> at any point. If I choose to <b>withdraw after <br>    completing the study, I have up to 2 weeks from today to do so</b>, and my data will be deleted.</li>     </ol></p> ","0","html-button-response","0","2278","0.0-0.0","8afjamtrz1","","","","","","","","","","","","","","","","","","",""
"848","<h3>Instructions for the experiment</h3>             <p style='text-align:left'>In each question, you will see a set of 4 cards and a sentence describing the cards.</p>             <p style='text-align:left'>One of the cards will be highlighted with a red dashed line. Your task is to indicate<br>whether             the sentence is acceptable for <u>the highlighted card</u> only.<br>             <p style='text-align:left'>We'll start with three practice questions.</p>             <p style='text-align:left'>When you feel ready, click Continue below to start the practice section.</p>","0","html-button-response","1","3127","0.0-1.0","8afjamtrz1","","","","","","","","","","","","","","","","","","",""
"","","","call-function","2","3128","0.0-2.0","8afjamtrz1","","","","","","","","","","","","","","","","","","",""
"","","","call-function","3","3128","0.0-3.0","8afjamtrz1","","","","","","","","","","","","","","","","","","",""
"","","","preload","4","3216","0.0-4.0","8afjamtrz1","","true","false","[]","[]","[]","","","","","","","","","","","","",""
"1929","","Acceptable","image-array-multi-choice","5","5146","0.0-5.0-0.0","8afjamtrz1","","","","","","","acceptability","radio","training","1","NA","NA","NA","NA","NA","The triangle is blue.","stimuli/training_stims/target-A.jpg","[""stimuli/training_stims/filler-A3.jpg"",""stimuli/training_stims/filler-A1.jpg"",""stimuli/training_stims/filler-A2.jpg"",""stimuli/training_stims/target-A.jpg""]","true"
"763","The triangle is blue.<p><b style=color:forestgreen>Correct! For the highlighted card </br>the sentence is acceptable.</p><img src=stimuli/training_stims/target-A.jpg style='border:3px solid lightgray; width:200px'>","0","html-button-response","6","5910","0.0-5.0-2.0","8afjamtrz1","","","","","","","","","","","","","","","","","","",""
"2382","","Acceptable","image-array-multi-choice","7","8293","0.0-6.0-0.0","8afjamtrz1","","","","","","","acceptability","radio","training","1","NA","NA","NA","NA","NA","The square that is next to the triangle is green.","stimuli/training_stims/target-B.jpg","[""stimuli/training_stims/filler-B2.jpg"",""stimuli/training_stims/target-B.jpg"",""stimuli/training_stims/filler-B3.jpg"",""stimuli/training_stims/filler-B1.jpg""]","true"
"901","The square that is next to the triangle is green.<p><b style=color:forestgreen>Correct! For the highlighted card </br>the sentence is acceptable.</p><img src=stimuli/training_stims/target-B.jpg style='border:3px solid lightgray; width:200px'>","0","html-button-response","8","9196","0.0-6.0-2.0","8afjamtrz1","","","","","","","","","","","","","","","","","","",""
"1434","","Unacceptable","image-array-multi-choice","9","10630","0.0-7.0-0.0","8afjamtrz1","","","","","","","acceptability","radio","training","1","NA","NA","NA","NA","NA","The circle is blue and is right of the triangle.","stimuli/training_stims/target-C.jpg","[""stimuli/training_stims/filler-C3.jpg"",""stimuli/training_stims/filler-C1.jpg"",""stimuli/training_stims/filler-C2.jpg"",""stimuli/training_stims/target-C.jpg""]","true"
"778","The circle is blue and is right of the triangle.<p><b style=color:forestgreen>Correct! For the highlighted card </br>the sentence is unacceptable.</p><img src=stimuli/training_stims/target-C.jpg style='border:3px solid lightgray; width:200px'>","0","html-button-response","10","11410","0.0-7.0-2.0","8afjamtrz1","","","","","","","","","","","","","","","","","","",""
"1451","<h3>Start of the experiment</h3>     <p style='text-align:left'>That is the practice part done. Next we will start the real experiment.</p>     <p style='text-align:left'>In some of the following questions the response might not be obvious.<br>     Just respond with your first intuition and don't overthink it. </p>     <p style='text-align:left'>When you feel ready to start, click Continue below.</p>","0","html-button-response","11","12861","0.0-8.0","8afjamtrz1","","","","","","","","","","","","","","","","","","",""
"1948","","Acceptable","image-array-multi-choice","12","14810","0.0-9.0","8afjamtrz1","","","","","","","acceptability","radio","test","NA","1","[""ft""]","","ana","qud1","The square is blue too.","stimuli/arc1-tt-2+ana2-ft-1+only2-tf-2.jpg","[""stimuli/def_un1-ff-1+scalar2-ft-1+numeral2-tf-2.jpg"",""stimuli/def_un1-tt-2+arc3-ff-1+numeral1-tt-2.jpg"",""stimuli/def_un1-ft-2+scalar2-tt-1.jpg"",""stimuli/def_un1-ft-1+con3-tt-2+def_ex1-ff-2.jpg""]",""
"1815","","Unacceptable","image-array-multi-choice","13","16627","0.0-10.0","8afjamtrz1","","","","","","","acceptability","radio","test","NA","2","[""tt""]","","only","qud3","Only the circle is pink.","stimuli/def_un1-ff-2+only3-tt-1+scalar3-ft-2.jpg","[""stimuli/def_un1-ff-1+scalar2-ft-1+numeral2-tf-2.jpg"",""stimuli/def_un1-tt-2+arc3-ff-1+numeral1-tt-2.jpg"",""stimuli/def_un1-ft-2+scalar2-tt-1.jpg"",""stimuli/def_un1-ft-1+con3-tt-2+def_ex1-ff-2.jpg""]",""
"1715","","Unacceptable","image-array-multi-choice","14","18344","0.0-11.0","8afjamtrz1","","","","","","","acceptability","radio","test","NA","3","[""ff""]","","con","qud1","The square is pink and is left of the circle.","stimuli/con1-ff-2+con2-ft-2+con3-ff-1+ana2-tt-1+ana3-ft-2+def_un3-tt-2.jpg","[""stimuli/def_un1-ff-1+scalar2-ft-1+numeral2-tf-2.jpg"",""stimuli/def_un1-tt-2+arc3-ff-1+numeral1-tt-2.jpg"",""stimuli/def_un1-ft-2+scalar2-tt-1.jpg"",""stimuli/def_un1-ft-1+con3-tt-2+def_ex1-ff-2.jpg""]",""
"7802","","Unacceptable","image-array-multi-choice","15","26147","0.0-12.0","8afjamtrz1","","","","","","","acceptability","radio","test","NA","4","[""tt""]","","numeral","qud3","One of the squares is green.","stimuli/numeral3-tt-2.jpg","[""stimuli/def_un1-ff-1+scalar2-ft-1+numeral2-tf-2.jpg"",""stimuli/def_un1-tt-2+arc3-ff-1+numeral1-tt-2.jpg"",""stimuli/def_un1-ft-2+scalar2-tt-1.jpg"",""stimuli/def_un1-ft-1+con3-tt-2+def_ex1-ff-2.jpg""]",""
"3346","","Acceptable","image-array-multi-choice","16","29494","0.0-13.0","8afjamtrz1","","","","","","","acceptability","radio","test","NA","5","[""ff""]","","def_ex","qud1","The green square is left of the circle.","stimuli/only1-tf-2+cons-ft-2+def_ex3-ff-1.jpg","[""stimuli/def_un1-ff-1+scalar2-ft-1+numeral2-tf-2.jpg"",""stimuli/def_un1-tt-2+arc3-ff-1+numeral1-tt-2.jpg"",""stimuli/def_un1-ft-2+scalar2-tt-1.jpg"",""stimuli/def_un1-ft-1+con3-tt-2+def_ex1-ff-2.jpg""]",""
"1365","","Unacceptable","image-array-multi-choice","17","30861","0.0-14.0","8afjamtrz1","","","","","","","acceptability","radio","test","NA","6","[""ft""]","","arc","qud3","The triangle, which is green, is left of the square.","stimuli/arc3-ft-1+def_ex2-tf-1.jpg","[""stimuli/def_un1-ff-1+scalar2-ft-1+numeral2-tf-2.jpg"",""stimuli/def_un1-tt-2+arc3-ff-1+numeral1-tt-2.jpg"",""stimuli/def_un1-ft-2+scalar2-tt-1.jpg"",""stimuli/def_un1-ft-1+con3-tt-2+def_ex1-ff-2.jpg""]",""
"2051","","Unacceptable","image-array-multi-choice","18","32913","0.0-15.0","8afjamtrz1","","","","","","","acceptability","radio","test","NA","7","[""tt""]","","scalar","qud3","Some of the shapes are blue.","stimuli/ana1-ft-2+only2-ft-2+arc2-tf-1+arc3-tf-1+scalar2-tt-2.jpg","[""stimuli/def_un1-ff-1+scalar2-ft-1+numeral2-tf-2.jpg"",""stimuli/def_un1-tt-2+arc3-ff-1+numeral1-tt-2.jpg"",""stimuli/def_un1-ft-2+scalar2-tt-1.jpg"",""stimuli/def_un1-ft-1+con3-tt-2+def_ex1-ff-2.jpg""]",""
"2045","","Acceptable","image-array-multi-choice","19","34959","0.0-16.0","8afjamtrz1","","","","","","","acceptability","radio","test","NA","8","[""ff""]","","def_un","qud3","The circle is left of the triangle.","stimuli/def_un1-ff-1+scalar2-ft-1+numeral2-tf-2.jpg","[""stimuli/def_un1-ff-1+scalar2-ft-1+numeral2-tf-2.jpg"",""stimuli/def_un1-tt-2+arc3-ff-1+numeral1-tt-2.jpg"",""stimuli/def_un1-ft-2+scalar2-tt-1.jpg"",""stimuli/def_un1-ft-1+con3-tt-2+def_ex1-ff-2.jpg""]",""
"6516","","{""first_lang"":""CE2C2EC2"",""bilingual"":""no"",""other_lang"":""CE2CE2"",""colourblind"":""no"",""feedback"":""CE2C2ECE2""}","survey-html-form","20","41477","0.0-17.0","8afjamtrz1","","","","","","","","","","","","","","","","","","",""
"1398","<h3>Finished!</h3>     <p style='text-align:left'>Thank you for taking part!</p>     <p style='text-align:left'>Click Finish to complete the experiment and return to Prolific.</p>","0","html-button-response","21","42876","0.0-18.0","8afjamtrz1","","","","","","","","","","","","","","","","","","",""
"rt","stimulus","response","trial_type","trial_index","time_elapsed","internal_node_id","participant_id","value","success","timeout","failed_images","failed_audio","failed_video","slider_start","condition","response_format","block","training_trial_counter","test_trial_counter","target_truth_value","all_TVs","target_content_type","qud","linguistic_prompt","target_image","images_in_order","correct"
"2371","<h3>Information and consent</h3>     <p style='text-align:left'> <b>Study title:</b> Sentences and shapes <br>     <b>Principal investigator:</b> Dan Lassiter <br>     <b>Researcher collecting data:</b> Dan Lassiter</p>         <p style='text-align:left'> <b>What is this document?</b> This document explains what kind of study we're doing, what your rights are,     and what will be done with your data. You should print this page for your records.</p>         <p style='text-align:left'> <b>Nature of the study.</b> You are invited to participate in a study which involves carefully reading sentences     about images showing different shapes and colours, and answering questions about the sentences and images. Once you finish, we also have some     questions about your experience (e.g. language background). Your responses will be recorded. Your session should last for around 8 minutes.     You will be given full instructions shortly.</p>         <p style='text-align:left'> <b>Compensation.</b> You will be paid at the posted rate for your participation in this study.</p>         <p style='text-align:left'> <b>Risks and benefits.</b> There are no known risks to participation in this study. Other than the payment mentioned,     there are no tangible benefits to you, however you will be contributing to our knowledge about language. </p>         <p style='text-align:left'> <b>Confidentiality and use of data.</b> All the information we collect during the course of the research will be processed     in accordance with Data Protection Law. In order to safeguard your privacy, we will never share personal information (like your name) with anyone     outside the research team. Your data will be referred to by a unique participant number rather than by name. Please note that we will temporarily     collect your Prolific ID to prevent repeat participation, however we will never share this information with anyone outside the research team and once     data collection is complete this ID will be deleted. Data will be stored on a password-protected, encrypted computer. The anonymised data collected     during this study will be used for research purposes. This includes being made available for other researchers to analyse.</p>         <p style='text-align:left'> <b>What are my data protection rights? </b> The University of Edinburgh is a Data Controller for the information you provide.     You have the right to access information held about you. Your right of access can be exercised in accordance with Data Protection Law. You also have other     rights including rights of correction, erasure and objection. For more details, including the right to lodge a complaint with the Information     Commissioner's Office, please visit www.ico.org.uk. Questions, comments and requests about your personal data can also be sent to the University Data     Protection Officer at dpo@ed.ac.uk.</p>         <p style='text-align:left'> <b>Voluntary participation and right to withdraw.</b> Your participation is voluntary, and you may stop at any time and for     any reason. If you wish to withdraw during the study, simply close the browser window and do not complete the study. If you wish to withdraw from the     study after completing, you can email the researcher within 2 weeks of participating and we will delete your data. In this case, there is no penalty or     loss of benefits to which you are otherwise entitled. Please note that after the two weeks have passed we will no longer be able delete your anonymised     data because your Prolific ID will have been deleted.</p>         <p style='text-align:left'> If you have any questions about what you've just read, please feel free to contact us now or later. You can contact us by     email at dan.lassiter@ed.ac.uk. This project has been approved by PPLS Ethics committee. If you have questions or comments regarding your rights as a     participant, please contact the School Research Convenor at ppls.rec@ed.ac.uk.</p>         <p style='text-align:left'> By proceeding you consent to the following:</p>     <ol type='1'>     <li><p style='text-align:left'><b>I agree to participate in this study.</b></li>     <li><p style='text-align:left'>I confirm that I have read and understood <b>how my data will be stored and used</b>.</li>     <li><p style='text-align:left'>I understand that I have the <b>right to terminate this session</b> at any point. If I choose to <b>withdraw after <br>    completing the study, I have up to 2 weeks from today to do so</b>, and my data will be deleted.</li>     </ol></p> ","0","html-button-response","0","2373","0.0-0.0","zfqb9v2esv","","","","","","","","","","","","","","","","","","","",""
"979","<h3>Instructions for the experiment</h3>             <p style='text-align:left'>In each question, you will see a set of 4 cards and a sentence describing the cards.</p>             <p style='text-align:left'>One of the cards will be highlighted with a red dashed line. Your task is to indicate<br>whether             the sentence is acceptable for <u>the highlighted card</u> only.<br>             <p style='text-align:left'>We'll start with three practice questions.</p>             <p style='text-align:left'>When you feel ready, click Continue below to start the practice section.</p>","0","html-button-response","1","3353","0.0-1.0","zfqb9v2esv","","","","","","","","","","","","","","","","","","","",""
"","","","call-function","2","3355","0.0-2.0","zfqb9v2esv","","","","","","","","","","","","","","","","","","","",""
"","","","call-function","3","3355","0.0-3.0","zfqb9v2esv","","","","","","","","","","","","","","","","","","","",""
"","","","preload","4","3441","0.0-4.0","zfqb9v2esv","","true","false","[]","[]","[]","","","","","","","","","","","","","",""
"2464","","94","image-array-slider-response","5","5906","0.0-5.0-0.0","zfqb9v2esv","","","","","","","50","acceptability","slider","training","1","NA","NA","NA","NA","NA","The triangle is blue.","stimuli/training_stims/target-A.jpg","[""stimuli/training_stims/filler-A3.jpg"",""stimuli/training_stims/filler-A1.jpg"",""stimuli/training_stims/filler-A2.jpg"",""stimuli/training_stims/target-A.jpg""]","true"
"956","The triangle is blue.<p><b style=color:forestgreen>Correct! For the highlighted card </br>the sentence is completely acceptable.</p><img src=stimuli/training_stims/target-A.jpg style='border:3px solid lightgray; width:200px'>","0","html-button-response","6","6864","0.0-5.0-2.0","zfqb9v2esv","","","","","","","","","","","","","","","","","","","",""
"1905","","94","image-array-slider-response","7","8769","0.0-6.0-0.0","zfqb9v2esv","","","","","","","50","acceptability","slider","training","1","NA","NA","NA","NA","NA","The square that is next to the triangle is green.","stimuli/training_stims/target-B.jpg","[""stimuli/training_stims/target-B.jpg"",""stimuli/training_stims/filler-B1.jpg"",""stimuli/training_stims/filler-B2.jpg"",""stimuli/training_stims/filler-B3.jpg""]","true"
"906","The square that is next to the triangle is green.<p><b style=color:forestgreen>Correct! For the highlighted card </br>the sentence is completely acceptable.</p><img src=stimuli/training_stims/target-B.jpg style='border:3px solid lightgray; width:200px'>","0","html-button-response","8","9677","0.0-6.0-2.0","zfqb9v2esv","","","","","","","","","","","","","","","","","","","",""
"2392","","3","image-array-slider-response","9","12070","0.0-7.0-0.0","zfqb9v2esv","","","","","","","50","acceptability","slider","training","1","NA","NA","NA","NA","NA","The circle is blue and is right of the triangle.","stimuli/training_stims/target-C.jpg","[""stimuli/training_stims/filler-C1.jpg"",""stimuli/training_stims/filler-C2.jpg"",""stimuli/training_stims/filler-C3.jpg"",""stimuli/training_stims/target-C.jpg""]","true"
"968","The circle is blue and is right of the triangle.<p><b style=color:forestgreen>Correct! For the highlighted card </br>the sentence is completely unacceptable.</p><img src=stimuli/training_stims/target-C.jpg style='border:3px solid lightgray; width:200px'>","0","html-button-response","10","13040","0.0-7.0-2.0","zfqb9v2esv","","","","","","","","","","","","","","","","","","","",""
"833","<h3>Start of the experiment</h3>     <p style='text-align:left'>That is the practice part done. Next we will start the real experiment.</p>     <p style='text-align:left'>In some of the following questions the response might not be obvious.<br>     Just respond with your first intuition and don't overthink it. </p>     <p style='text-align:left'>When you feel ready to start, click Continue below.</p>","0","html-button-response","11","13873","0.0-8.0","zfqb9v2esv","","","","","","","","","","","","","","","","","","","",""
"3146","","60","image-array-slider-response","12","17020","0.0-9.0","zfqb9v2esv","","","","","","","50","acceptability","slider","test","NA","1","[""tt""]","[[""tt""],[""tt""],[""ff""],[""tf""]]","def_un","qud4","The circle is left of the triangle.","stimuli/def_un1-tt-1+con3-tf-2+arc2-tf-2.jpg","[""stimuli/arc1-ff-1+con2-tt-1+ana3-tf-1+only2-tt-2+def_ex2-ff-1.jpg"",""stimuli/only1-ft-2+con2-tt-2+ana3-tt-1+only3-tf-1+arc3-ff-2+def_ex3-ft-1.jpg"",""stimuli/con1-tf-1+ana3-tt-2.jpg"",""stimuli/con1-tf-1+ana3-tt-2.jpg""]",""
"1265","","45","image-array-slider-response","13","18286","0.0-10.0","zfqb9v2esv","","","","","","","50","acceptability","slider","test","NA","2","[""ff""]","[[""tf""],[""ff""],[""ff""],[""ff""]]","numeral","qud4","One of the circles is pink.","stimuli/def_un1-tf-1+numeral2-ff-1.jpg","[""stimuli/arc1-ff-1+con2-tt-1+ana3-tf-1+only2-tt-2+def_ex2-ff-1.jpg"",""stimuli/only1-ft-2+con2-tt-2+ana3-tt-1+only3-tf-1+arc3-ff-2+def_ex3-ft-1.jpg"",""stimuli/con1-tf-1+ana3-tt-2.jpg"",""stimuli/con1-tf-1+ana3-tt-2.jpg""]",""
"2449","","54","image-array-slider-response","14","20736","0.0-11.0","zfqb9v2esv","","","","","","","50","acceptability","slider","test","NA","3","[""ff""]","[[""ff""],[""tf""],[""tt""],[""ft""]]","arc","qud4","The circle, which is blue, is right of the triangle.","stimuli/arc1-ff-1+con2-tt-1+ana3-tf-1+only2-tt-2+def_ex2-ff-1.jpg","[""stimuli/arc1-ff-1+con2-tt-1+ana3-tf-1+only2-tt-2+def_ex2-ff-1.jpg"",""stimuli/only1-ft-2+con2-tt-2+ana3-tt-1+only3-tf-1+arc3-ff-2+def_ex3-ft-1.jpg"",""stimuli/con1-tf-1+ana3-tt-2.jpg"",""stimuli/con1-tf-1+ana3-tt-2.jpg""]",""
"1398","","45","image-array-slider-response","15","22137","0.0-12.0","zfqb9v2esv","","","","","","","50","acceptability","slider","test","NA","4","[""ft""]","[[""ft""],[""ft""],[""tf""],[""tf""]]","only","qud4","Only the square is green.","stimuli/only1-ft-1+numeral1-tt-1.jpg","[""stimuli/arc1-ff-1+con2-tt-1+ana3-tf-1+only2-tt-2+def_ex2-ff-1.jpg"",""stimuli/only1-ft-2+con2-tt-2+ana3-tt-1+only3-tf-1+arc3-ff-2+def_ex3-ft-1.jpg"",""stimuli/con1-tf-1+ana3-tt-2.jpg"",""stimuli/con1-tf-1+ana3-tt-2.jpg""]",""
"1491","","57","image-array-slider-response","16","23629","0.0-13.0","zfqb9v2esv","","","","","","","50","acceptability","slider","test","NA","5","[""ff""]","[[""tt""],[""tf""],[""ff""],[""ff""]]","con","qud4","The square is pink and is left of the circle.","stimuli/con1-ff-2+con2-ft-2+con3-ff-1+ana2-tt-1+ana3-ft-2+def_un3-tt-2.jpg","[""stimuli/arc1-ff-1+con2-tt-1+ana3-tf-1+only2-tt-2+def_ex2-ff-1.jpg"",""stimuli/only1-ft-2+con2-tt-2+ana3-tt-1+only3-tf-1+arc3-ff-2+def_ex3-ft-1.jpg"",""stimuli/con1-tf-1+ana3-tt-2.jpg"",""stimuli/con1-tf-1+ana3-tt-2.jpg""]",""
"1730","","42","image-array-slider-response","17","25361","0.0-14.0","zfqb9v2esv","","","","","","","50","acceptability","slider","test","NA","6","[""tt""]","[[""tt""],[""tt""],[""ft""],[""ft""]]","def_ex","qud4","The pink triangle is right of the square.","stimuli/def_ex1-tt-1+con2-ft-1+def_ex2-tt-1.jpg","[""stimuli/arc1-ff-1+con2-tt-1+ana3-tf-1+only2-tt-2+def_ex2-ff-1.jpg"",""stimuli/only1-ft-2+con2-tt-2+ana3-tt-1+only3-tf-1+arc3-ff-2+def_ex3-ft-1.jpg"",""stimuli/con1-tf-1+ana3-tt-2.jpg"",""stimuli/con1-tf-1+ana3-tt-2.jpg""]",""
"1476","","56","image-array-slider-response","18","26839","0.0-15.0","zfqb9v2esv","","","","","","","50","acceptability","slider","test","NA","7","[""ft""]","[[""ft""],[""ft""],[""ft""],[""ft""]]","scalar","qud4","Some of the circles are green.","stimuli/scalar1-ft-2+numeral2-tf-1.jpg","[""stimuli/arc1-ff-1+con2-tt-1+ana3-tf-1+only2-tt-2+def_ex2-ff-1.jpg"",""stimuli/only1-ft-2+con2-tt-2+ana3-tt-1+only3-tf-1+arc3-ff-2+def_ex3-ft-1.jpg"",""stimuli/con1-tf-1+ana3-tt-2.jpg"",""stimuli/con1-tf-1+ana3-tt-2.jpg""]",""
"1630","","43","image-array-slider-response","19","28470","0.0-16.0","zfqb9v2esv","","","","","","","50","acceptability","slider","test","NA","8","[""tf""]","[[""tf""],[""tt""],[""tt""],[""tt""]]","ana","qud4","The circle is green too.","stimuli/arc1-ff-1+con2-tt-1+ana3-tf-1+only2-tt-2+def_ex2-ff-1.jpg","[""stimuli/arc1-ff-1+con2-tt-1+ana3-tf-1+only2-tt-2+def_ex2-ff-1.jpg"",""stimuli/only1-ft-2+con2-tt-2+ana3-tt-1+only3-tf-1+arc3-ff-2+def_ex3-ft-1.jpg"",""stimuli/con1-tf-1+ana3-tt-2.jpg"",""stimuli/con1-tf-1+ana3-tt-2.jpg""]",""
"5936","","{""first_lang"":""2cc2e"",""bilingual"":""no"",""other_lang"":""ec2e2c"",""colourblind"":""no"",""feedback"":""2cece2ce2""}","survey-html-form","20","34408","0.0-17.0","zfqb9v2esv","","","","","","","","","","","","","","","","","","","",""
"1028","<h3>Finished!</h3>     <p style='text-align:left'>Thank you for taking part!</p>     <p style='text-align:left'>Click Finish to complete the experiment and return to Prolific.</p>","0","html-button-response","21","35437","0.0-18.0","zfqb9v2esv","","","","","","","","","","","","","","","","","","","",""
"rt","stimulus","response","trial_type","trial_index","time_elapsed","internal_node_id","participant_id","value","success","timeout","failed_images","failed_audio","failed_video","slider_start","condition","response_format","block","training_trial_counter","test_trial_counter","target_truth_value","all_TVs","target_content_type","qud","linguistic_prompt","target_image","images_in_order","correct"
"2514","<h3>Information and consent</h3>     <p style='text-align:left'> <b>Study title:</b> Sentences and shapes <br>     <b>Principal investigator:</b> Dan Lassiter <br>     <b>Researcher collecting data:</b> Dan Lassiter</p>         <p style='text-align:left'> <b>What is this document?</b> This document explains what kind of study we're doing, what your rights are,     and what will be done with your data. You should print this page for your records.</p>         <p style='text-align:left'> <b>Nature of the study.</b> You are invited to participate in a study which involves carefully reading sentences     about images showing different shapes and colours, and answering questions about the sentences and images. Once you finish, we also have some     questions about your experience (e.g. language background). Your responses will be recorded. Your session should last for around 8 minutes.     You will be given full instructions shortly.</p>         <p style='text-align:left'> <b>Compensation.</b> You will be paid at the posted rate for your participation in this study.</p>         <p style='text-align:left'> <b>Risks and benefits.</b> There are no known risks to participation in this study. Other than the payment mentioned,     there are no tangible benefits to you, however you will be contributing to our knowledge about language. </p>         <p style='text-align:left'> <b>Confidentiality and use of data.</b> All the information we collect during the course of the research will be processed     in accordance with Data Protection Law. In order to safeguard your privacy, we will never share personal information (like your name) with anyone     outside the research team. Your data will be referred to by a unique participant number rather than by name. Please note that we will temporarily     collect your Prolific ID to prevent repeat participation, however we will never share this information with anyone outside the research team and once     data collection is complete this ID will be deleted. Data will be stored on a password-protected, encrypted computer. The anonymised data collected     during this study will be used for research purposes. This includes being made available for other researchers to analyse.</p>         <p style='text-align:left'> <b>What are my data protection rights? </b> The University of Edinburgh is a Data Controller for the information you provide.     You have the right to access information held about you. Your right of access can be exercised in accordance with Data Protection Law. You also have other     rights including rights of correction, erasure and objection. For more details, including the right to lodge a complaint with the Information     Commissioner's Office, please visit www.ico.org.uk. Questions, comments and requests about your personal data can also be sent to the University Data     Protection Officer at dpo@ed.ac.uk.</p>         <p style='text-align:left'> <b>Voluntary participation and right to withdraw.</b> Your participation is voluntary, and you may stop at any time and for     any reason. If you wish to withdraw during the study, simply close the browser window and do not complete the study. If you wish to withdraw from the     study after completing, you can email the researcher within 2 weeks of participating and we will delete your data. In this case, there is no penalty or     loss of benefits to which you are otherwise entitled. Please note that after the two weeks have passed we will no longer be able delete your anonymised     data because your Prolific ID will have been deleted.</p>         <p style='text-align:left'> If you have any questions about what you've just read, please feel free to contact us now or later. You can contact us by     email at dan.lassiter@ed.ac.uk. This project has been approved by PPLS Ethics committee. If you have questions or comments regarding your rights as a     participant, please contact the School Research Convenor at ppls.rec@ed.ac.uk.</p>         <p style='text-align:left'> By proceeding you consent to the following:</p>     <ol type='1'>     <li><p style='text-align:left'><b>I agree to participate in this study.</b></li>     <li><p style='text-align:left'>I confirm that I have read and understood <b>how my data will be stored and used</b>.</li>     <li><p style='text-align:left'>I understand that I have the <b>right to terminate this session</b> at any point. If I choose to <b>withdraw after <br>    completing the study, I have up to 2 weeks from today to do so</b>, and my data will be deleted.</li>     </ol></p> ","0","html-button-response","0","2516","0.0-0.0","lzkhohsdw7","","","","","","","","","","","","","","","","","","","",""
"965","<h3>Instructions for the experiment</h3>             <p style='text-align:left'>In each question, you will see a set of 4 cards and a sentence describing the cards.</p>             <p style='text-align:left'>One of the cards will be highlighted with a red dashed line. Your task is to indicate<br>whether             the sentence is acceptable for <u>the highlighted card</u> only.<br>             <p style='text-align:left'>We'll start with three practice questions.</p>             <p style='text-align:left'>When you feel ready, click Continue below to start the practice section.</p>","0","html-button-response","1","3482","0.0-1.0","lzkhohsdw7","","","","","","","","","","","","","","","","","","","",""
"","","","call-function","2","3483","0.0-2.0","lzkhohsdw7","","","","","","","","","","","","","","","","","","","",""
"","","","call-function","3","3483","0.0-3.0","lzkhohsdw7","","","","","","","","","","","","","","","","","","","",""
"","","","preload","4","3506","0.0-4.0","lzkhohsdw7","","true","false","[]","[]","[]","","","","","","","","","","","","","",""
"2124","","62","image-array-slider-response","5","5631","0.0-5.0-0.0","lzkhohsdw7","","","","","","","50","acceptability","slider","training","1","NA","NA","NA","NA","NA","The triangle is blue.","stimuli/training_stims/target-A.jpg","[""stimuli/training_stims/filler-A2.jpg"",""stimuli/training_stims/filler-A3.jpg"",""stimuli/training_stims/target-A.jpg"",""stimuli/training_stims/filler-A1.jpg""]","false"
"1830","","43","image-array-slider-response","6","7464","0.0-5.0-1.0-0.0-0.0","lzkhohsdw7","","","","","","","50","acceptability","slider","training","2","NA","NA","NA","NA","NA","The triangle is blue.","stimuli/training_stims/target-A.jpg","[""stimuli/training_stims/filler-A2.jpg"",""stimuli/training_stims/filler-A3.jpg"",""stimuli/training_stims/target-A.jpg"",""stimuli/training_stims/filler-A1.jpg""]","false"
"1281","","56","image-array-slider-response","7","8747","0.0-5.0-1.1-0.1-0.1","lzkhohsdw7","","","","","","","50","acceptability","slider","training","3","NA","NA","NA","NA","NA","The triangle is blue.","stimuli/training_stims/target-A.jpg","[""stimuli/training_stims/filler-A2.jpg"",""stimuli/training_stims/filler-A3.jpg"",""stimuli/training_stims/target-A.jpg"",""stimuli/training_stims/filler-A1.jpg""]","false"
"2205","","97","image-array-slider-response","8","10953","0.0-5.0-1.2-0.2-0.2","lzkhohsdw7","","","","","","","50","acceptability","slider","training","4","NA","NA","NA","NA","NA","The triangle is blue.","stimuli/training_stims/target-A.jpg","[""stimuli/training_stims/filler-A2.jpg"",""stimuli/training_stims/filler-A3.jpg"",""stimuli/training_stims/target-A.jpg"",""stimuli/training_stims/filler-A1.jpg""]","true"
"709","The triangle is blue.<p><b style=color:forestgreen>Correct! For the highlighted card </br>the sentence is completely acceptable.</p><img src=stimuli/training_stims/target-A.jpg style='border:3px solid lightgray; width:200px'>","0","html-button-response","9","11663","0.0-5.0-2.0","lzkhohsdw7","","","","","","","","","","","","","","","","","","","",""
"1866","","93","image-array-slider-response","10","13531","0.0-6.0-0.0","lzkhohsdw7","","","","","","","50","acceptability","slider","training","1","NA","NA","NA","NA","NA","The square that is next to the triangle is green.","stimuli/training_stims/target-B.jpg","[""stimuli/training_stims/filler-B1.jpg"",""stimuli/training_stims/target-B.jpg"",""stimuli/training_stims/filler-B2.jpg"",""stimuli/training_stims/filler-B3.jpg""]","true"
"615","The square that is next to the triangle is green.<p><b style=color:forestgreen>Correct! For the highlighted card </br>the sentence is completely acceptable.</p><img src=stimuli/training_stims/target-B.jpg style='border:3px solid lightgray; width:200px'>","0","html-button-response","11","14147","0.0-6.0-2.0","lzkhohsdw7","","","","","","","","","","","","","","","","","","","",""
"2199","","4","image-array-slider-response","12","16348","0.0-7.0-0.0","lzkhohsdw7","","","","","","","50","acceptability","slider","training","1","NA","NA","NA","NA","NA","The circle is blue and is right of the triangle.","stimuli/training_stims/target-C.jpg","[""stimuli/training_stims/filler-C1.jpg"",""stimuli/training_stims/filler-C3.jpg"",""stimuli/training_stims/target-C.jpg"",""stimuli/training_stims/filler-C2.jpg""]","true"
"832","The circle is blue and is right of the triangle.<p><b style=color:forestgreen>Correct! For the highlighted card </br>the sentence is completely unacceptable.</p><img src=stimuli/training_stims/target-C.jpg style='border:3px solid lightgray; width:200px'>","0","html-button-response","13","17181","0.0-7.0-2.0","lzkhohsdw7","","","","","","","","","","","","","","","","","","","",""
"936","<h3>Start of the experiment</h3>     <p style='text-align:left'>That is the practice part done. Next we will start the real experiment.</p>     <p style='text-align:left'>In some of the following questions the response might not be obvious.<br>     Just respond with your first intuition and don't overthink it. </p>     <p style='text-align:left'>When you feel ready to start, click Continue below.</p>","0","html-button-response","14","18118","0.0-8.0","lzkhohsdw7","","","","","","","","","","","","","","","","","","","",""
"1231","","56","image-array-slider-response","15","19350","0.0-9.0","lzkhohsdw7","","","","","","","50","acceptability","slider","test","NA","1","[""tt""]","[[""tt""],[""ft""],[""tt""],[""ff""]]","def_un","qud2","The triangle is pink.","stimuli/only1-tt-1+def_un2-tt-2.jpg","[""stimuli/def_ex1-ff-1+ana2-ff-2+only3-ft-2+arc2-tt-2.jpg"",""stimuli/def_un1-ff-2+only3-tt-1+scalar3-ft-2.jpg"",""stimuli/con1-ff-1+con2-tf-1+only3-ff-2+arc2-ff-2+def_un3-tt-1.jpg"",""stimuli/only1-tf-1+only3-tt-2+def_un2-ft-1.jpg""]",""
"1366","","44","image-array-slider-response","16","20717","0.0-10.0","lzkhohsdw7","","","","","","","50","acceptability","slider","test","NA","2","[""ft""]","[[""tt""],[""tf""],[""ft""],[""tf""]]","def_ex","qud3","The green square is left of the circle.","stimuli/only1-ft-2+con2-tt-2+ana3-tt-1+only3-tf-1+arc3-ff-2+def_ex3-ft-1.jpg","[""stimuli/def_ex1-ff-1+ana2-ff-2+only3-ft-2+arc2-tt-2.jpg"",""stimuli/def_un1-ff-2+only3-tt-1+scalar3-ft-2.jpg"",""stimuli/con1-ff-1+con2-tf-1+only3-ff-2+arc2-ff-2+def_un3-tt-1.jpg"",""stimuli/only1-tf-1+only3-tt-2+def_un2-ft-1.jpg""]",""
"1279","","56","image-array-slider-response","17","21997","0.0-11.0","lzkhohsdw7","","","","","","","50","acceptability","slider","test","NA","3","[""ft""]","[[""tt""],[""ft""],[""tt""],[""tt""]]","scalar","qud3","Some of the shapes are blue.","stimuli/def_ex2-tt-2+scalar2-ft-2.jpg","[""stimuli/def_ex1-ff-1+ana2-ff-2+only3-ft-2+arc2-tt-2.jpg"",""stimuli/def_un1-ff-2+only3-tt-1+scalar3-ft-2.jpg"",""stimuli/con1-ff-1+con2-tf-1+only3-ff-2+arc2-ff-2+def_un3-tt-1.jpg"",""stimuli/only1-tf-1+only3-tt-2+def_un2-ft-1.jpg""]",""
"1165","","43","image-array-slider-response","18","23164","0.0-12.0","lzkhohsdw7","","","","","","","50","acceptability","slider","test","NA","4","[""ft""]","[[""ft""],[""ff""],[""ft""],[""ff""]]","ana","qud1","The triangle is pink too.","stimuli/ana1-ft-2+only2-ft-2+arc2-tf-1+arc3-tf-1+scalar2-tt-2.jpg","[""stimuli/def_ex1-ff-1+ana2-ff-2+only3-ft-2+arc2-tt-2.jpg"",""stimuli/def_un1-ff-2+only3-tt-1+scalar3-ft-2.jpg"",""stimuli/con1-ff-1+con2-tf-1+only3-ff-2+arc2-ff-2+def_un3-tt-1.jpg"",""stimuli/only1-tf-1+only3-tt-2+def_un2-ft-1.jpg""]",""
"1152","","55","image-array-slider-response","19","24317","0.0-13.0","lzkhohsdw7","","","","","","","50","acceptability","slider","test","NA","5","[""tf""]","[[""ff""],[""ff""],[""tf""],[""tf""]]","numeral","qud1","One of the shapes is a triangle.","stimuli/def_un2-ff-1+numeral1-tf-1.jpg","[""stimuli/def_ex1-ff-1+ana2-ff-2+only3-ft-2+arc2-tt-2.jpg"",""stimuli/def_un1-ff-2+only3-tt-1+scalar3-ft-2.jpg"",""stimuli/con1-ff-1+con2-tf-1+only3-ff-2+arc2-ff-2+def_un3-tt-1.jpg"",""stimuli/only1-tf-1+only3-tt-2+def_un2-ft-1.jpg""]",""
"1531","","44","image-array-slider-response","20","25850","0.0-14.0","lzkhohsdw7","","","","","","","50","acceptability","slider","test","NA","6","[""ft""]","[[""tf""],[""ft""],[""tt""],[""tf""]]","con","qud2","The square is pink and is left of the circle.","stimuli/con1-ft-1+ana3-ff-1+def_ex3-tf-1+def_un3-ft-2+def_ex2-ft-2.jpg","[""stimuli/def_ex1-ff-1+ana2-ff-2+only3-ft-2+arc2-tt-2.jpg"",""stimuli/def_un1-ff-2+only3-tt-1+scalar3-ft-2.jpg"",""stimuli/con1-ff-1+con2-tf-1+only3-ff-2+arc2-ff-2+def_un3-tt-1.jpg"",""stimuli/only1-tf-1+only3-tt-2+def_un2-ft-1.jpg""]",""
"2312","","59","image-array-slider-response","21","28164","0.0-15.0","lzkhohsdw7","","","","","","","50","acceptability","slider","test","NA","7","[""ff""]","[[""tf""],[""ft""],[""ff""],[""tf""]]","arc","qud1","The square, which is left of the circle, is pink.","stimuli/con1-ff-1+con2-tf-1+only3-ff-2+arc2-ff-2+def_un3-tt-1.jpg","[""stimuli/def_ex1-ff-1+ana2-ff-2+only3-ft-2+arc2-tt-2.jpg"",""stimuli/def_un1-ff-2+only3-tt-1+scalar3-ft-2.jpg"",""stimuli/con1-ff-1+con2-tf-1+only3-ff-2+arc2-ff-2+def_un3-tt-1.jpg"",""stimuli/only1-tf-1+only3-tt-2+def_un2-ft-1.jpg""]",""
"1198","","44","image-array-slider-response","22","29363","0.0-16.0","lzkhohsdw7","","","","","","","50","acceptability","slider","test","NA","8","[""ft""]","[[""ft""],[""tt""],[""ff""],[""tt""]]","only","qud3","Only the circle is pink.","stimuli/def_ex1-ff-1+ana2-ff-2+only3-ft-2+arc2-tt-2.jpg","[""stimuli/def_ex1-ff-1+ana2-ff-2+only3-ft-2+arc2-tt-2.jpg"",""stimuli/def_un1-ff-2+only3-tt-1+scalar3-ft-2.jpg"",""stimuli/con1-ff-1+con2-tf-1+only3-ff-2+arc2-ff-2+def_un3-tt-1.jpg"",""stimuli/only1-tf-1+only3-tt-2+def_un2-ft-1.jpg""]",""
"5803","","{""first_lang"":""c2"",""bilingual"":""no"",""other_lang"":"""",""colourblind"":""no"",""feedback"":""""}","survey-html-form","23","35168","0.0-17.0","lzkhohsdw7","","","","","","","","","","","","","","","","","","","",""
"969","<h3>Finished!</h3>     <p style='text-align:left'>Thank you for taking part!</p>     <p style='text-align:left'>Click Finish to complete the experiment and return to Prolific.</p>","0","html-button-response","24","36137","0.0-18.0","lzkhohsdw7","","","","","","","","","","","","","","","","","","","",""
"rt","stimulus","response","trial_type","trial_index","time_elapsed","internal_node_id","participant_id","value","success","timeout","failed_images","failed_audio","failed_video","slider_start","condition","response_format","block","training_trial_counter","test_trial_counter","target_truth_value","all_TVs","target_content_type","qud","linguistic_prompt","target_image","images_in_order","correct"
"2013","<h3>Information and consent</h3>     <p style='text-align:left'> <b>Study title:</b> Sentences and shapes <br>     <b>Principal investigator:</b> Dan Lassiter <br>     <b>Researcher collecting data:</b> Dan Lassiter</p>         <p style='text-align:left'> <b>What is this document?</b> This document explains what kind of study we're doing, what your rights are,     and what will be done with your data. You should print this page for your records.</p>         <p style='text-align:left'> <b>Nature of the study.</b> You are invited to participate in a study which involves carefully reading sentences     about images showing different shapes and colours, and answering questions about the sentences and images. Once you finish, we also have some     questions about your experience (e.g. language background). Your responses will be recorded. Your session should last for around 8 minutes.     You will be given full instructions shortly.</p>         <p style='text-align:left'> <b>Compensation.</b> You will be paid at the posted rate for your participation in this study.</p>         <p style='text-align:left'> <b>Risks and benefits.</b> There are no known risks to participation in this study. Other than the payment mentioned,     there are no tangible benefits to you, however you will be contributing to our knowledge about language. </p>         <p style='text-align:left'> <b>Confidentiality and use of data.</b> All the information we collect during the course of the research will be processed     in accordance with Data Protection Law. In order to safeguard your privacy, we will never share personal information (like your name) with anyone     outside the research team. Your data will be referred to by a unique participant number rather than by name. Please note that we will temporarily     collect your Prolific ID to prevent repeat participation, however we will never share this information with anyone outside the research team and once     data collection is complete this ID will be deleted. Data will be stored on a password-protected, encrypted computer. The anonymised data collected     during this study will be used for research purposes. This includes being made available for other researchers to analyse.</p>         <p style='text-align:left'> <b>What are my data protection rights? </b> The University of Edinburgh is a Data Controller for the information you provide.     You have the right to access information held about you. Your right of access can be exercised in accordance with Data Protection Law. You also have other     rights including rights of correction, erasure and objection. For more details, including the right to lodge a complaint with the Information     Commissioner's Office, please visit www.ico.org.uk. Questions, comments and requests about your personal data can also be sent to the University Data     Protection Officer at dpo@ed.ac.uk.</p>         <p style='text-align:left'> <b>Voluntary participation and right to withdraw.</b> Your participation is voluntary, and you may stop at any time and for     any reason. If you wish to withdraw during the study, simply close the browser window and do not complete the study. If you wish to withdraw from the     study after completing, you can email the researcher within 2 weeks of participating and we will delete your data. In this case, there is no penalty or     loss of benefits to which you are otherwise entitled. Please note that after the two weeks have passed we will no longer be able delete your anonymised     data because your Prolific ID will have been deleted.</p>         <p style='text-align:left'> If you have any questions about what you've just read, please feel free to contact us now or later. You can contact us by     email at dan.lassiter@ed.ac.uk. This project has been approved by PPLS Ethics committee. If you have questions or comments regarding your rights as a     participant, please contact the School Research Convenor at ppls.rec@ed.ac.uk.</p>         <p style='text-align:left'> By proceeding you consent to the following:</p>     <ol type='1'>     <li><p style='text-align:left'><b>I agree to participate in this study.</b></li>     <li><p style='text-align:left'>I confirm that I have read and understood <b>how my data will be stored and used</b>.</li>     <li><p style='text-align:left'>I understand that I have the <b>right to terminate this session</b> at any point. If I choose to <b>withdraw after <br>    completing the study, I have up to 2 weeks from today to do so</b>, and my data will be deleted.</li>     </ol></p> ","0","html-button-response","0","2015","0.0-0.0","9tk9megesr","","","","","","","","","","","","","","","","","","","",""
"1331","<h3>Instructions for the experiment</h3>             <p style='text-align:left'>In each question, you will see a set of 4 cards and a sentence describing the cards.</p>             <p style='text-align:left'>One of the cards will be highlighted with a red dashed line. Your task is to indicate<br>whether             the sentence is acceptable for <u>the highlighted card</u> only.<br>             <p style='text-align:left'>We'll start with three practice questions.</p>             <p style='text-align:left'>When you feel ready, click Continue below to start the practice section.</p>","0","html-button-response","1","3347","0.0-1.0","9tk9megesr","","","","","","","","","","","","","","","","","","","",""
"","","","call-function","2","3348","0.0-2.0","9tk9megesr","","","","","","","","","","","","","","","","","","","",""
"","","","call-function","3","3349","0.0-3.0","9tk9megesr","","","","","","","","","","","","","","","","","","","",""
"","","","preload","4","3451","0.0-4.0","9tk9megesr","","true","false","[]","[]","[]","","","","","","","","","","","","","",""
"1881","","61","image-array-slider-response","5","5333","0.0-5.0-0.0","9tk9megesr","","","","","","","50","acceptability","slider","training","1","NA","NA","NA","NA","NA","The triangle is blue.","stimuli/training_stims/target-A.jpg","[""stimuli/training_stims/target-A.jpg"",""stimuli/training_stims/filler-A2.jpg"",""stimuli/training_stims/filler-A1.jpg"",""stimuli/training_stims/filler-A3.jpg""]","false"
"2413","","98","image-array-slider-response","6","7748","0.0-5.0-1.0-0.0-0.0","9tk9megesr","","","","","","","50","acceptability","slider","training","2","NA","NA","NA","NA","NA","The triangle is blue.","stimuli/training_stims/target-A.jpg","[""stimuli/training_stims/target-A.jpg"",""stimuli/training_stims/filler-A2.jpg"",""stimuli/training_stims/filler-A1.jpg"",""stimuli/training_stims/filler-A3.jpg""]","true"
"949","The triangle is blue.<p><b style=color:forestgreen>Correct! For the highlighted card </br>the sentence is completely acceptable.</p><img src=stimuli/training_stims/target-A.jpg style='border:3px solid lightgray; width:200px'>","0","html-button-response","7","8698","0.0-5.0-2.0","9tk9megesr","","","","","","","","","","","","","","","","","","","",""
"2515","","96","image-array-slider-response","8","11214","0.0-6.0-0.0","9tk9megesr","","","","","","","50","acceptability","slider","training","1","NA","NA","NA","NA","NA","The square that is next to the triangle is green.","stimuli/training_stims/target-B.jpg","[""stimuli/training_stims/filler-B1.jpg"",""stimuli/training_stims/filler-B3.jpg"",""stimuli/training_stims/target-B.jpg"",""stimuli/training_stims/filler-B2.jpg""]","true"
"782","The square that is next to the triangle is green.<p><b style=color:forestgreen>Correct! For the highlighted card </br>the sentence is completely acceptable.</p><img src=stimuli/training_stims/target-B.jpg style='border:3px solid lightgray; width:200px'>","0","html-button-response","9","11998","0.0-6.0-2.0","9tk9megesr","","","","","","","","","","","","","","","","","","","",""
"1865","","2","image-array-slider-response","10","13864","0.0-7.0-0.0","9tk9megesr","","","","","","","50","acceptability","slider","training","1","NA","NA","NA","NA","NA","The circle is blue and is right of the triangle.","stimuli/training_stims/target-C.jpg","[""stimuli/training_stims/filler-C2.jpg"",""stimuli/training_stims/filler-C1.jpg"",""stimuli/training_stims/filler-C3.jpg"",""stimuli/training_stims/target-C.jpg""]","true"
"805","The circle is blue and is right of the triangle.<p><b style=color:forestgreen>Correct! For the highlighted card </br>the sentence is completely unacceptable.</p><img src=stimuli/training_stims/target-C.jpg style='border:3px solid lightgray; width:200px'>","0","html-button-response","11","14671","0.0-7.0-2.0","9tk9megesr","","","","","","","","","","","","","","","","","","","",""
"1084","<h3>Start of the experiment</h3>     <p style='text-align:left'>That is the practice part done. Next we will start the real experiment.</p>     <p style='text-align:left'>In some of the following questions the response might not be obvious.<br>     Just respond with your first intuition and don't overthink it. </p>     <p style='text-align:left'>When you feel ready to start, click Continue below.</p>","0","html-button-response","12","15755","0.0-8.0","9tk9megesr","","","","","","","","","","","","","","","","","","","",""
"1927","","56","image-array-slider-response","13","17683","0.0-9.0","9tk9megesr","","","","","","","50","acceptability","slider","test","NA","1","[""tf""]","[[""tf""],[""ff""],[""ff""],[""tf""]]","ana","qud3","The triangle is pink too.","stimuli/ana1-tf-1+only2-ff-1.jpg","[""stimuli/only1-ft-2+con2-tt-2+ana3-tt-1+only3-tf-1+arc3-ff-2+def_ex3-ft-1.jpg"",""stimuli/arc1-ft-1+ana3-ft-1+def_ex3-tt-2.jpg"",""stimuli/con1-ft-1+ana3-ff-1+def_ex3-tf-1+def_un3-ft-2+def_ex2-ft-2.jpg"",""stimuli/only1-tf-2+cons-ft-2+def_ex3-ff-1.jpg""]",""
"1763","","55","image-array-slider-response","14","19448","0.0-10.0","9tk9megesr","","","","","","","50","acceptability","slider","test","NA","2","[""tf""]","[[""tf""],[""tf""],[""tf""],[""ff""]]","numeral","qud3","One of the squares is green.","stimuli/numeral3-tf-2.jpg","[""stimuli/only1-ft-2+con2-tt-2+ana3-tt-1+only3-tf-1+arc3-ff-2+def_ex3-ft-1.jpg"",""stimuli/arc1-ft-1+ana3-ft-1+def_ex3-tt-2.jpg"",""stimuli/con1-ft-1+ana3-ff-1+def_ex3-tf-1+def_un3-ft-2+def_ex2-ft-2.jpg"",""stimuli/only1-tf-2+cons-ft-2+def_ex3-ff-1.jpg""]",""
"2903","","55","image-array-slider-response","15","22353","0.0-11.0","9tk9megesr","","","","","","","50","acceptability","slider","test","NA","3","[""ff""]","[[""ff""],[""tt""],[""ff""],[""ff""]]","only","qud1","Only the triangle is blue.","stimuli/ana1-tt-1+ana2-tf-1+only2-ff-2+def_ex-ft-2.jpg","[""stimuli/only1-ft-2+con2-tt-2+ana3-tt-1+only3-tf-1+arc3-ff-2+def_ex3-ft-1.jpg"",""stimuli/arc1-ft-1+ana3-ft-1+def_ex3-tt-2.jpg"",""stimuli/con1-ft-1+ana3-ff-1+def_ex3-tf-1+def_un3-ft-2+def_ex2-ft-2.jpg"",""stimuli/only1-tf-2+cons-ft-2+def_ex3-ff-1.jpg""]",""
"1378","","55","image-array-slider-response","16","23733","0.0-12.0","9tk9megesr","","","","","","","50","acceptability","slider","test","NA","4","[""ff""]","[[""ff""],[""ft""],[""ft""],[""ff""]]","con","qud3","The square is pink and is left of the circle.","stimuli/con1-ff-1+con2-tf-1+only3-ff-2+arc2-ff-2+def_un3-tt-1.jpg","[""stimuli/only1-ft-2+con2-tt-2+ana3-tt-1+only3-tf-1+arc3-ff-2+def_ex3-ft-1.jpg"",""stimuli/arc1-ft-1+ana3-ft-1+def_ex3-tt-2.jpg"",""stimuli/con1-ft-1+ana3-ff-1+def_ex3-tf-1+def_un3-ft-2+def_ex2-ft-2.jpg"",""stimuli/only1-tf-2+cons-ft-2+def_ex3-ff-1.jpg""]",""
"1582","","55","image-array-slider-response","17","25317","0.0-13.0","9tk9megesr","","","","","","","50","acceptability","slider","test","NA","5","[""tf""]","[[""tt""],[""ft""],[""tt""],[""tf""]]","scalar","qud3","Some of the shapes are blue.","stimuli/def_un3-tf-2+scalar2-tf-2+numeral3-ff-1.jpg","[""stimuli/only1-ft-2+con2-tt-2+ana3-tt-1+only3-tf-1+arc3-ff-2+def_ex3-ft-1.jpg"",""stimuli/arc1-ft-1+ana3-ft-1+def_ex3-tt-2.jpg"",""stimuli/con1-ft-1+ana3-ff-1+def_ex3-tf-1+def_un3-ft-2+def_ex2-ft-2.jpg"",""stimuli/only1-tf-2+cons-ft-2+def_ex3-ff-1.jpg""]",""
"1648","","56","image-array-slider-response","18","26966","0.0-14.0","9tk9megesr","","","","","","","50","acceptability","slider","test","NA","6","[""ff""]","[[""ff""],[""ft""],[""tf""],[""tt""]]","def_un","qud2","The circle is left of the triangle.","stimuli/def_un1-ff-2+only3-tt-1+scalar3-ft-2.jpg","[""stimuli/only1-ft-2+con2-tt-2+ana3-tt-1+only3-tf-1+arc3-ff-2+def_ex3-ft-1.jpg"",""stimuli/arc1-ft-1+ana3-ft-1+def_ex3-tt-2.jpg"",""stimuli/con1-ft-1+ana3-ff-1+def_ex3-tf-1+def_un3-ft-2+def_ex2-ft-2.jpg"",""stimuli/only1-tf-2+cons-ft-2+def_ex3-ff-1.jpg""]",""
"2049","","55","image-array-slider-response","19","29017","0.0-15.0","9tk9megesr","","","","","","","50","acceptability","slider","test","NA","7","[""ff""]","[[""tt""],[""ft""],[""tt""],[""ff""]]","arc","qud1","The triangle, which is green, is left of the square.","stimuli/only1-ft-2+con2-tt-2+ana3-tt-1+only3-tf-1+arc3-ff-2+def_ex3-ft-1.jpg","[""stimuli/only1-ft-2+con2-tt-2+ana3-tt-1+only3-tf-1+arc3-ff-2+def_ex3-ft-1.jpg"",""stimuli/arc1-ft-1+ana3-ft-1+def_ex3-tt-2.jpg"",""stimuli/con1-ft-1+ana3-ff-1+def_ex3-tf-1+def_un3-ft-2+def_ex2-ft-2.jpg"",""stimuli/only1-tf-2+cons-ft-2+def_ex3-ff-1.jpg""]",""
"2046","","58","image-array-slider-response","20","31064","0.0-16.0","9tk9megesr","","","","","","","50","acceptability","slider","test","NA","8","[""tt""]","[[""ft""],[""tt""],[""tf""],[""ff""]]","def_ex","qud1","The green square is left of the circle.","stimuli/arc1-ft-1+ana3-ft-1+def_ex3-tt-2.jpg","[""stimuli/only1-ft-2+con2-tt-2+ana3-tt-1+only3-tf-1+arc3-ff-2+def_ex3-ft-1.jpg"",""stimuli/arc1-ft-1+ana3-ft-1+def_ex3-tt-2.jpg"",""stimuli/con1-ft-1+ana3-ff-1+def_ex3-tf-1+def_un3-ft-2+def_ex2-ft-2.jpg"",""stimuli/only1-tf-2+cons-ft-2+def_ex3-ff-1.jpg""]",""
"4766","","{""first_lang"":""ccee"",""bilingual"":""no"",""other_lang"":"""",""colourblind"":""no"",""feedback"":""""}","survey-html-form","21","35832","0.0-17.0","9tk9megesr","","","","","","","","","","","","","","","","","","","",""
"1101","<h3>Finished!</h3>     <p style='text-align:left'>Thank you for taking part!</p>     <p style='text-align:left'>Click Finish to complete the experiment and return to Prolific.</p>","0","html-button-response","22","36933","0.0-18.0","9tk9megesr","","","","","","","","","","","","","","","","","","","",""
